choice_response.corr,s_adjust.thisIndex,xResolution,SJ_trials_skip.thisIndex,SJ_trials_after.thisN,cont_0.keys,cont_2.keys,s_adjust.thisN,cont_3.keys,participant,SJ_trials_after.thisIndex,cond,__datetime,SJ_trials_after.ran,choice_response.rt,trials.ran,response_distortion.corr,group,cont_5.rt,key_resp.rt,entity2,psychopyVersion,attribute1,choice_response.keys,cont_6.rt,SJ_trials_before.thisN,imagePath2,exit.rt,SJ_trials_before.thisIndex,key_resp.keys,SJ_trials_between.thisTrialN,SJ_trials_after.thisRepN,s_adjust.ran,training.thisIndex,s_adjust.thisRepN,cont_2.rt,SJ_trials_between.thisN,trials.thisN,SJ_trials_before.thisRepN,__participant,corrAns_synchronicity,training.thisRepN,SJ_trials_before.ran,target_loc,trials.thisTrialN,cont_4.rt,sentence_id,response_sync.rt,videoPath,cont_5.keys,SJ_trials_skip.thisTrialN,globalClockTime,cont_3.rt,response_distortion.keys,SJ_trials_between.thisIndex,id,cont_7.rt,block_counter_choice,SJ_trials_skip.thisN,cont_0.rt,expName,response_sync.keys,echo,trials.thisIndex,date,corrAns_distortion,show_attribute,cont_6.keys,entity1,corrAns_choice,SJ_trials_between.ran,SJ_trials_between.thisRepN,SJ_trials_skip.ran,cont_4.keys,trial_counter_choice,verb,trials.thisRepN,researcher,training.thisN,latency,SJ_trials_after.thisTrialN,training.thisTrialN,cont_7.keys,OS,cont_1.keys,frameRate,yResolution,cont_1.rt,imagePos,s_adjust.thisTrialN,response_sync.corr,item,block_counter_sj,attribute2,browser,trial_counter_sj,imagePath,SJ_trials_skip.thisRepN,__session,corrAns,sentence,response_distortion.rt,__experimentName,fill_attribute,trial_counter_training,exit.keys,training.ran,SJ_trials_before.thisTrialN,Name_optional
﻿,0,1920,,,return,,0,,5,,,2021-04-07_10h24.20.769,,,,,0,,,,2021.1.2,,,,,,,,,,,1,,0,,,,,5,,,,,,,,,,,,,,,,test,,,,49.705610000004526,av_experiment,,,,2021-04-07_10h24.20.769,,,,,,,,,,,,,aron,,,,,,Win32,return,59.898173105695214,1080,4.554124999966007,,0,,,,,Chrome,,,,SESSION,,,,av_experiment,,,,,,
﻿1,,1920,,,,return,,return,5,,4,2021-04-07_10h24.20.769,,9.138604999985546,,,0,1.1138800000189804,,bräutigam,2021.1.2,dick,left,,,images/bräutigam.png,,,,,,,3,,2.6836500000208616,,,,5,,0,,1,,0.9517700000433251,,,choice_videos/4_072.mp4,return,,,1.033724999986589,,,test,,,,,av_experiment,,400,,2021-04-07_10h24.20.769,,,,mönch,,,,,return,,tröstet,,aron,0,0,,0,,Win32,,59.898173105695214,1080,,,,,159,,hübsch,Chrome,,images/mönch.png,,SESSION,,Den dicken Mönch tröstet der hübsche Bräutigam.,,av_experiment,alt,,,1,,
﻿1,,1920,,,,,,,5,,1,2021-04-07_10h24.20.769,,6.14865499996813,,,0,,,kobold,2021.1.2,rüde,left,,,images/kobold.png,,,,,,,1,,,,,,5,,0,,1,,,,,choice_videos/1_016.mp4,,,,,,,test,,,,,av_experiment,,0,,2021-04-07_10h24.20.769,,,,cowboy,,,,,,,jagt,,aron,1,10,,1,,Win32,,59.898173105695214,1080,,,,,146,,frech,Chrome,,images/cowboy.png,,SESSION,,Der rüde Cowboy jagt den frechen Kobold.,,av_experiment,rüde,,,1,,
﻿0,,1920,,,,,,,5,,3,2021-04-07_10h24.20.769,,3.6907549999887124,,,0,,,riese,2021.1.2,flink,left,,,images/riese.png,,,,,,,0,,,,,,5,,0,,0,,,,,choice_videos/3_011.mp4,,,,,,,test,,,,,av_experiment,,10,,2021-04-07_10h24.20.769,,,,zwerg,,,,,,,fesselt,,aron,2,0,,2,,Win32,,59.898173105695214,1080,,,,,143,,träge,Chrome,,images/zwerg.png,,SESSION,,Der flinke Zwerg fesselt den trägen Riesen.,,av_experiment,alt,,,1,,
﻿0,,1920,,,,,,,5,,2,2021-04-07_10h24.20.769,,4.048764999955893,,,0,,,pilot,2021.1.2,alt,left,,,images/pilot.png,,,,,,,2,,,,,,5,,0,,0,,,,,choice_videos/2_055.mp4,,,,,,,test,,,,,av_experiment,,0,,2021-04-07_10h24.20.769,,,,pfarrer,,,,,,,grüßt,,aron,3,400,,3,,Win32,,59.898173105695214,1080,,,,,152,,klug,Chrome,,images/pfarrer.png,,SESSION,,Den alten Pfarrer grüßt der kluge Pilot.,,av_experiment,dick,,,1,,
﻿,,1920,,,,,,,5,,1,2021-04-07_10h24.20.769,,,,1,0,,,,2021.1.2,,,2.2868100000196137,0,,,1,,,,,,,,,,0,5,,,1,,,,,1.381569999968633,sj_videos/1_083.mp4,,,,,right,,test,2.1780150000122376,,,,av_experiment,right,0,,2021-04-07_10h24.20.769,,,return,,,,,,,,,,aron,,10,,,return,Win32,,59.898173105695214,1080,,,,0,2,,,Chrome,,,,SESSION,,"Der Maler, der die Vampire beschattet, gähnt.",0.2889500000164844,av_experiment,,,,,0,
﻿,,1920,,,,,,,5,,2,2021-04-07_10h24.20.769,,,,1,0,,,,2021.1.2,,,,1,,,7,,,,,,,,,,0,5,,,1,,,,,1.4516200000070967,sj_videos/2_089.mp4,,,,,right,,test,,,,,av_experiment,left,0,,2021-04-07_10h24.20.769,,,,,,,,,,,,,aron,,400,,,,Win32,,59.898173105695214,1080,,,,1,8,,,Chrome,,,,SESSION,,"Der Bräutigam, der die Riesen ersticht, lacht.",0.3785149999894202,av_experiment,,,,,1,
﻿,,1920,,,,,,,5,,4,2021-04-07_10h24.20.769,,,,0,0,,,,2021.1.2,,,,2,,,4,,,,,,,,,,0,5,,,1,,,,,0.4669949999661185,sj_videos/4_086.mp4,,,,,right,,test,,,,,av_experiment,left,400,,2021-04-07_10h24.20.769,,,,,,,,,,,,,aron,,0,,,,Win32,,59.898173105695214,1080,,,,0,5,,,Chrome,,,,SESSION,,"Der Frisör, der die Bäcker erschießt, niest.",0.36706999997841194,av_experiment,,,,,2,
﻿,,1920,,,,,,,5,,0,2021-04-07_10h24.20.769,,,,0,0,,,,2021.1.2,,,,3,,,5,,,,,,,,,,0,5,,,1,,,,,1.1768799999845214,sj_videos/0_087.mp4,,,,,left,,test,,,,,av_experiment,right,0,,2021-04-07_10h24.20.769,,,,,,,,,,,,,aron,,0,,,,Win32,,59.898173105695214,1080,,,,1,6,,,Chrome,,,,SESSION,,"Der Frisör, der die Köchinnen erschießt, grinst.",0.42288999998709187,av_experiment,,,,,3,
﻿,,1920,,,,,,,5,,2,2021-04-07_10h24.20.769,,,,1,0,,,,2021.1.2,,,,4,,,2,,,,,,,,,,0,5,,,1,,,,,0.809914999990724,sj_videos/2_084.mp4,,,,,right,,test,,,,,av_experiment,left,0,,2021-04-07_10h24.20.769,,,,,,,,,,,,,aron,,400,,,,Win32,,59.898173105695214,1080,,,,1,3,,,Chrome,,,,SESSION,,"Der Lehrer, der die Models bestiehlt, zittert.",0.44130499998573214,av_experiment,,,,,4,
﻿,,1920,,,,,,,5,,4,2021-04-07_10h24.20.769,,,,1,0,,,,2021.1.2,,,,5,,,9,,,,,,,,,,0,5,,,1,,,,,0.13414499995997176,sj_videos/4_091.mp4,,,,,left,,test,,,,,av_experiment,right,400,,2021-04-07_10h24.20.769,,,,,,,,,,,,,aron,,0,,,,Win32,,59.898173105695214,1080,,,,1,10,,,Chrome,,,,SESSION,,"Der Richter, der die Radfahrer erwürgt, weint.",0.41650499997194856,av_experiment,,,,,5,
﻿,,1920,,,,,,,5,,3,2021-04-07_10h24.20.769,,,,1,0,,,,2021.1.2,,,,6,,,8,,,,,,,,,,0,5,,,1,,,,,1.041399999987334,sj_videos/3_090.mp4,,,,,left,,test,,,,,av_experiment,right,10,,2021-04-07_10h24.20.769,,,,,,,,,,,,,aron,,0,,,,Win32,,59.898173105695214,1080,,,,1,9,,,Chrome,,,,SESSION,,"Der Maler, der die Witwen ersticht, zittert.",0.6754450000007637,av_experiment,,,,,6,
﻿,,1920,,,,,,,5,,0,2021-04-07_10h24.20.769,,,,1,0,,,,2021.1.2,,,,7,,,0,,,,,,,,,,0,5,,,1,,,,,0.734085000003688,sj_videos/0_082.mp4,,,,,right,,test,,,,,av_experiment,right,0,,2021-04-07_10h24.20.769,,,,,,,,,,,,,aron,,0,,,,Win32,,59.898173105695214,1080,,,,1,1,,,Chrome,,,,SESSION,,"Der Punker, der die Maler beschattet, niest.",0.28377499995986,av_experiment,,,,,7,
﻿,,1920,,,,,,,5,,3,2021-04-07_10h24.20.769,,,,0,0,,,,2021.1.2,,,,8,,,3,,,,,,,,,,0,5,,,1,,,,,0.0033600000315345824,sj_videos/3_085.mp4,,,,,right,,test,,,,,av_experiment,right,10,,2021-04-07_10h24.20.769,,,,,,,,,,,,,aron,,0,,,,Win32,,59.898173105695214,1080,,,,1,4,,,Chrome,,,,SESSION,,"Der Mönch, der die Astronauten erschießt, lacht.",0.3003500000340864,av_experiment,,,,,8,
﻿,,1920,,,,,,,5,,1,2021-04-07_10h24.20.769,,,,1,0,,,,2021.1.2,,,,9,,,6,,,,,,,,,,0,5,,,1,,,,,0.5870799999684095,sj_videos/1_088.mp4,,,,,right,,test,,,,,av_experiment,left,0,,2021-04-07_10h24.20.769,,,,,,,,,,,,,aron,,10,,,,Win32,,59.898173105695214,1080,,,,1,7,,,Chrome,,,,SESSION,,"Der Koch, der die Touristinnen erschießt, niest.",0.31245999998645857,av_experiment,,,,,9,
﻿1,,1920,,,,,,,5,,4,2021-04-07_10h24.20.769,,3.3895299999858253,1,,0,,,kapitän,2021.1.2,arm,left,,,images/kapitän.png,,,,,,,,,,,0,,5,,,,1,0,,,,choice_videos/4_079.mp4,,,,,,,test,,,,,av_experiment,,400,0,2021-04-07_10h24.20.769,,,,matrose,,,,,,,weckt,0,aron,,0,,,,Win32,,59.898173105695214,1080,,,,,139,,groß,Chrome,,images/matrose.png,,SESSION,,Den armen Matrosen weckt der große Kapitän.,,av_experiment,klein,,,,,
﻿1,,1920,,,,,,,5,,0,2021-04-07_10h24.20.769,,1.868465000006836,1,,0,,,elch,2021.1.2,taub,right,,,images/elch.png,,,,,,,,,,,1,,5,,,,0,1,,,,choice_videos/0_007.mp4,,,,,,,test,,,,,av_experiment,,0,1,2021-04-07_10h24.20.769,,,,elefant,,,,,,,fängt,0,aron,,0,,,,Win32,,59.898173105695214,1080,,,,,10,,müde,Chrome,,images/elefant.png,,SESSION,,Der taube Elefant fängt den müden Elch.,,av_experiment,schlau,,,,,
﻿0,,1920,,,,,,,5,,4,2021-04-07_10h24.20.769,,1.7924549999879673,1,,0,,,pilot,2021.1.2,alt,right,,,images/pilot.png,,,,,,,,,,,2,,5,,,,1,2,,,,choice_videos/4_055.mp4,,,,,,,test,,,,,av_experiment,,400,2,2021-04-07_10h24.20.769,,,,pfarrer,,,,,,,grüßt,0,aron,,0,,,,Win32,,59.898173105695214,1080,,,,,99,,klug,Chrome,,images/pfarrer.png,,SESSION,,Den alten Pfarrer grüßt der kluge Pilot.,,av_experiment,blind,,,,,
﻿1,,1920,,,,,,,5,,2,2021-04-07_10h24.20.769,,3.259380000003148,1,,0,,,koch,2021.1.2,arm,right,,,images/koch.png,,,,,,,,,,,3,,5,,,,0,3,,,,choice_videos/2_047.mp4,,,,,,,test,,,,,av_experiment,,0,3,2021-04-07_10h24.20.769,,,,tourist,,,,,,,ersticht,0,aron,,400,,,,Win32,,59.898173105695214,1080,,,,,82,,fies,Chrome,,images/tourist.png,,SESSION,,Den armen Touristen ersticht der fiese Koch.,,av_experiment,klug,,,,,
﻿0,,1920,,,,,,,5,,3,2021-04-07_10h24.20.769,,2.180065000022296,1,,0,,,elch,2021.1.2,schnell,right,,,images/elch.png,,,,,,,,,,,4,,5,,,,1,4,,,,choice_videos/3_076.mp4,,,,,,,test,,,,,av_experiment,,10,4,2021-04-07_10h24.20.769,,,,elefant,,,,,,,verfolgt,0,aron,,0,,,,Win32,,59.898173105695214,1080,,,,,133,,lahm,Chrome,,images/elefant.png,,SESSION,,Den schnellen Elefanten verfolgt der lahme Elch.,,av_experiment,schwarz,,,,,
﻿0,,1920,,,,,,,5,,1,2021-04-07_10h24.20.769,,0.6518899999791756,1,,0,,,cowboy,2021.1.2,schön,left,,,images/cowboy.png,,,,,,,,,,,5,,5,,,,0,5,,,,choice_videos/1_017.mp4,,,,,,,test,,,,,av_experiment,,0,5,2021-04-07_10h24.20.769,,,,radfahrer,,,,,,,jagt,0,aron,,10,,,,Win32,,59.898173105695214,1080,,,,,26,,blass,Chrome,,images/radfahrer.png,,SESSION,,Der schöne Radfahrer jagt den blassen Cowboy.,,av_experiment,wach,,,,,
﻿1,,1920,,,,,,,5,,4,2021-04-07_10h24.20.769,,2.539519999991171,1,,0,,,roboter,2021.1.2,faul,left,,,images/roboter.png,,,,,,,,,,,6,,5,,,,1,6,,,,choice_videos/4_040.mp4,,,,,,,test,,,,,av_experiment,,400,6,2021-04-07_10h24.20.769,,,,drache,,,,,,,berührt,0,aron,,0,,,,Win32,,59.898173105695214,1080,,,,,69,,klug,Chrome,,images/drache.png,,SESSION,,Den faulen Drachen berührt der kluge Roboter.,,av_experiment,nass,,,,,
﻿0,,1920,,,,,,,5,,2,2021-04-07_10h24.20.769,,0.7220100000267848,1,,0,,,gärtner,2021.1.2,nett,left,,,images/gärtner.png,,,,,,,,,,,7,,5,,,,0,7,,,,choice_videos/2_026.mp4,,,,,,,test,,,,,av_experiment,,0,7,2021-04-07_10h24.20.769,,,,maler,,,,,,,massiert,0,aron,,400,,,,Win32,,59.898173105695214,1080,,,,,42,,still,Chrome,,images/maler.png,,SESSION,,Der nette Maler massiert den stillen Gärtner.,,av_experiment,gut,,,,,
﻿0,,1920,,,,,,,5,,3,2021-04-07_10h24.20.769,,4.84953000000678,1,,0,,,junge,2021.1.2,nett,left,,,images/junge.png,,,,,,,,,,,8,,5,,,,0,8,,,,choice_videos/3_035.mp4,,,,,,,test,,,,,av_experiment,,10,8,2021-04-07_10h24.20.769,,,,lehrer,,,,,,,tröstet,0,aron,,0,,,,Win32,,59.898173105695214,1080,,,,,58,,arm,Chrome,,images/lehrer.png,,SESSION,,Der nette Lehrer tröstet den armen Jungen.,,av_experiment,nett,,,,,
﻿1,,1920,,,,,,,5,,0,2021-04-07_10h24.20.769,,0.889229999971576,1,,0,,,frisör,2021.1.2,still,right,,,images/frisör.png,,,,,,,,,,,9,,5,,,,0,9,,,,choice_videos/0_013.mp4,,,,,,,test,,,,,av_experiment,,0,9,2021-04-07_10h24.20.769,,,,postbote,,,,,,,grüßt,0,aron,,0,,,,Win32,,59.898173105695214,1080,,,,,20,,dick,Chrome,,images/postbote.png,,SESSION,,Der stille Postbote grüßt den dicken Frisör.,,av_experiment,dick,,,,,
﻿1,,1920,,,,,,,5,,2,2021-04-07_10h24.20.769,,0.2791200000210665,1,,0,,,maulwurf,2021.1.2,dick,right,,,images/maulwurf.png,,,,,,,,,,,10,,5,,,,0,10,,,,choice_videos/2_058.mp4,,,,,,,test,,,,,av_experiment,,0,10,2021-04-07_10h24.20.769,,,,koala,,,,,,,jagt,0,aron,,400,,,,Win32,,59.898173105695214,1080,,,,,102,,klein,Chrome,,images/koala.png,,SESSION,,Den dicken Koala jagt der kleine Maulwurf.,,av_experiment,böse,,,,,
﻿1,,1920,,,,,,,5,,3,2021-04-07_10h24.20.769,,0.43695499998284504,1,,0,,,gärtner,2021.1.2,nett,left,,,images/gärtner.png,,,,,,,,,,,11,,5,,,,1,11,,,,choice_videos/3_037.mp4,,,,,,,test,,,,,av_experiment,,10,11,2021-04-07_10h24.20.769,,,,maler,,,,,,,weckt,0,aron,,0,,,,Win32,,59.898173105695214,1080,,,,,63,,müde,Chrome,,images/maler.png,,SESSION,,Der nette Maler weckt den müden Gärtner.,,av_experiment,böse,,,,,
﻿1,,1920,,,,,,,5,,1,2021-04-07_10h24.20.769,,1.2407249999814667,1,,0,,,mann,2021.1.2,dick,right,,,images/mann.png,,,,,,,,,,,12,,5,,,,0,12,,,,choice_videos/1_066.mp4,,,,,,,test,,,,,av_experiment,,0,12,2021-04-07_10h24.20.769,,,,nikolaus,,,,,,,streichelt,0,aron,,10,,,,Win32,,59.898173105695214,1080,,,,,116,,alt,Chrome,,images/nikolaus.png,,SESSION,,Den dicken Nikolaus streichelt der alte Mann.,,av_experiment,stark,,,,,
﻿0,,1920,,,,,,,5,,4,2021-04-07_10h24.20.769,,1.442449999973178,1,,0,,,bräutigam,2021.1.2,dick,left,,,images/bräutigam.png,,,,,,,,,,,13,,5,,,,2,13,,,,choice_videos/4_072.mp4,,,,,,,test,,,,,av_experiment,,400,13,2021-04-07_10h24.20.769,,,,mönch,,,,,,,tröstet,0,aron,,0,,,,Win32,,59.898173105695214,1080,,,,,159,,hübsch,Chrome,,images/mönch.png,,SESSION,,Den dicken Mönch tröstet der hübsche Bräutigam.,,av_experiment,wild,,,,,
﻿1,,1920,,,,,,,5,,3,2021-04-07_10h24.20.769,,0.26191499998094514,1,,0,,,soldat,2021.1.2,fies,left,,,images/soldat.png,,,,,,,,,,,14,,5,,,,1,14,,,,choice_videos/3_003.mp4,,,,,,,test,,,,,av_experiment,,10,14,2021-04-07_10h24.20.769,,,,pirat,,,,,,,erschießt,0,aron,,0,,,,Win32,,59.898173105695214,1080,,,,,4,,brav,Chrome,,images/pirat.png,,SESSION,,Der fiese Pirat erschießt den braven Soldaten.,,av_experiment,dick,,,,,
﻿0,,1920,,,,,,,5,,4,2021-04-07_10h24.20.769,,3.375629999965895,1,,0,,,riese,2021.1.2,flink,right,,,images/riese.png,,,,,,,,,,,15,,5,,,,2,15,,,,choice_videos/4_011.mp4,,,,,,,test,,,,,av_experiment,,400,15,2021-04-07_10h24.20.769,,,,zwerg,,,,,,,fesselt,0,aron,,0,,,,Win32,,59.898173105695214,1080,,,,,144,,träge,Chrome,,images/zwerg.png,,SESSION,,Der flinke Zwerg fesselt den trägen Riesen.,,av_experiment,stolz,,,,,
﻿0,,1920,,,,,,,5,,1,2021-04-07_10h24.20.769,,2.6386550000170246,1,,0,,1.8971400000154972,koch,2021.1.2,faul,right,,,images/koch.png,,,return,,,,,,,,16,,5,,,,1,16,,,,choice_videos/1_046.mp4,,,,,,,test,,,,,av_experiment,,0,16,2021-04-07_10h24.20.769,,,,bäcker,,,,,,,ersticht,0,aron,,10,,,,Win32,,59.898173105695214,1080,,,,,81,,böse,Chrome,,images/bäcker.png,,SESSION,,Den faulen Bäcker ersticht der böse Koch.,,av_experiment,brav,,,,,
﻿1,,1920,,,,,,,5,,3,2021-04-07_10h24.20.769,,2.456944999983534,1,,0,,,tiger,2021.1.2,bunt,right,,,images/tiger.png,,,,,,,,,,,17,,5,,,,0,17,,,,choice_videos/3_024.mp4,,,,,,,test,,,,,av_experiment,,10,17,2021-04-07_10h24.20.769,,,,papagei,,,,,,,malt,0,aron,,0,,,,Win32,,59.898173105695214,1080,,,,,38,,wild,Chrome,,images/papagei.png,,SESSION,,Der bunte Papagei malt den wilden Tiger.,,av_experiment,arm,,,,,
﻿0,,1920,,,,,,,5,,0,2021-04-07_10h24.20.769,,0.923285000026226,1,,0,,,soldat,2021.1.2,blind,left,,,images/soldat.png,,,,,,,,,,,18,,5,,,,0,18,,,,choice_videos/0_002.mp4,,,,,,,test,,,,,av_experiment,,0,18,2021-04-07_10h24.20.769,,,,jäger,,,,,,,erschießt,0,aron,,0,,,,Win32,,59.898173105695214,1080,,,,,1,,brav,Chrome,,images/jäger.png,,SESSION,,Der blinde Jäger erschießt den braven Soldaten.,,av_experiment,grau,,,,,
﻿0,,1920,,,,,,,5,,0,2021-04-07_10h24.20.769,,0.34531000000424683,1,,0,,,panda,2021.1.2,müde,right,,,images/panda.png,,,,,,,,,,,19,,5,,,,1,19,,,,choice_videos/0_053.mp4,,,,,,,test,,,,,av_experiment,,0,19,2021-04-07_10h24.20.769,,,,drache,,,,,,,fesselt,0,aron,,0,,,,Win32,,59.898173105695214,1080,,,,,95,,groß,Chrome,,images/drache.png,,SESSION,,Den müden Drachen fesselt der große Panda.,,av_experiment,dick,,,,,
﻿1,,1920,,,,,,,5,,3,2021-04-07_10h24.20.769,,1.827335000038147,1,,0,,,koala,2021.1.2,klein,right,,,images/koala.png,,,,,,,,,,,20,,5,,,,0,20,,,,choice_videos/3_012.mp4,,,,,,,test,,,,,av_experiment,,10,20,2021-04-07_10h24.20.769,,,,pinguin,,,,,,,filmt,0,aron,,0,,,,Win32,,59.898173105695214,1080,,,,,18,,süß,Chrome,,images/pinguin.png,,SESSION,,Der kleine Pinguin filmt den süßen Koala.,,av_experiment,alt,,,,,
﻿0,,1920,,,,,,,5,,2,2021-04-07_10h24.20.769,,0.28675500000827014,1,,0,,,polizist,2021.1.2,frech,right,,,images/polizist.png,,,,,,,,,,,21,,5,,,,1,21,,,,choice_videos/2_028.mp4,,,,,,,test,,,,,av_experiment,,0,21,2021-04-07_10h24.20.769,,,,punker,,,,,,,schlägt,0,aron,,400,,,,Win32,,59.898173105695214,1080,,,,,47,,schwach,Chrome,,images/punker.png,,SESSION,,Der freche Punker schlägt den schwachen Polizisten.,,av_experiment,streng,,,,,
﻿0,,1920,,,,,,,5,,3,2021-04-07_10h24.20.769,,0.0006000000284984708,1,,0,,,koch,2021.1.2,arm,right,,,images/koch.png,,,,,,,,,,,22,,5,,,,1,22,,,,choice_videos/3_047.mp4,,,,,,,test,,,,,av_experiment,,10,22,2021-04-07_10h24.20.769,,,,tourist,,,,,,,ersticht,0,aron,,0,,,,Win32,,59.898173105695214,1080,,,,,83,,fies,Chrome,,images/tourist.png,,SESSION,,Den armen Touristen ersticht der fiese Koch.,,av_experiment,böse,,,,,
﻿0,,1920,,,,,,,5,,1,2021-04-07_10h24.20.769,,0.3582600000081584,1,,0,,,tiger,2021.1.2,dick,right,,,images/tiger.png,,,,,,,,,,,23,,5,,,,1,23,,,,choice_videos/1_025.mp4,,,,,,,test,,,,,av_experiment,,0,23,2021-04-07_10h24.20.769,,,,bär,,,,,,,massiert,0,aron,,10,,,,Win32,,59.898173105695214,1080,,,,,41,,stolz,Chrome,,images/bär.png,,SESSION,,Der dicke Bär massiert den stolzen Tiger.,,av_experiment,stur,,,,,
﻿1,,1920,,,,,,,5,,0,2021-04-07_10h24.20.769,,0.14236500003607944,1,,0,,,soldat,2021.1.2,böse,left,,,images/soldat.png,,,,,,,,,,,24,,5,,,,1,24,,,,choice_videos/0_027.mp4,,,,,,,test,,,,,av_experiment,,0,24,2021-04-07_10h24.20.769,,,,räuber,,,,,,,schlägt,0,aron,,0,,,,Win32,,59.898173105695214,1080,,,,,45,,brav,Chrome,,images/räuber.png,,SESSION,,Der böse Räuber schlägt den braven Soldaten.,,av_experiment,böse,,,,,
﻿1,,1920,,,,,,,5,,4,2021-04-07_10h24.20.769,,0.37271500000497326,1,,0,,,koch,2021.1.2,faul,right,,,images/koch.png,,,,,,,,,,,25,,5,,,,0,25,,,,choice_videos/4_004.mp4,,,,,,,test,,,,,av_experiment,,400,25,2021-04-07_10h24.20.769,,,,bäcker,,,,,,,ersticht,0,aron,,0,,,,Win32,,59.898173105695214,1080,,,,,5,,böse,Chrome,,images/bäcker.png,,SESSION,,Der faule Bäcker ersticht den bösen Koch.,,av_experiment,alt,,,,,
﻿0,,1920,,,,,,,5,,3,2021-04-07_10h24.20.769,,0.3157150000333786,1,,0,,,papagei,2021.1.2,wild,right,,,images/papagei.png,,,,,,,,,,,26,,5,,,,1,26,,,,choice_videos/3_063.mp4,,,,,,,test,,,,,av_experiment,,10,26,2021-04-07_10h24.20.769,,,,tiger,,,,,,,malt,0,aron,,0,,,,Win32,,59.898173105695214,1080,,,,,113,,bunt,Chrome,,images/tiger.png,,SESSION,,Den wilden Tiger malt der bunte Papagei.,,av_experiment,schwer,,,,,
﻿0,,1920,,,,,,,5,,0,2021-04-07_10h24.20.769,,0.07502500002738088,1,,0,,,soldat,2021.1.2,blind,up,,,images/soldat.png,,,,,,,,,,,27,,5,,,,1,27,,,,choice_videos/0_043.mp4,,,,,,,test,,,,,av_experiment,,0,27,2021-04-07_10h24.20.769,,,,jäger,,,,,,,erschießt,0,aron,,0,,,,Win32,,59.898173105695214,1080,,,,,75,,brav,Chrome,,images/jäger.png,,SESSION,,Den blinden Jäger erschießt der brave Soldat.,,av_experiment,böse,,,,,
﻿1,,1920,,,,,,,5,,2,2021-04-07_10h24.20.769,,0.16942499997094274,1,,0,,,mann,2021.1.2,dick,left,,,images/mann.png,,,,,,,,,,,28,,5,,,,1,28,,,,choice_videos/2_066.mp4,,,,,,,test,,,,,av_experiment,,0,28,2021-04-07_10h24.20.769,,,,nikolaus,,,,,,,streichelt,0,aron,,400,,,,Win32,,59.898173105695214,1080,,,,,117,,alt,Chrome,,images/nikolaus.png,,SESSION,,Den dicken Nikolaus streichelt der alte Mann.,,av_experiment,böse,,,,,
﻿1,,1920,,,,,,,5,,3,2021-04-07_10h24.20.769,,0.4010250000283122,1,,0,,,kasper,2021.1.2,stolz,right,,,images/kasper.png,,,,,,,,,,,29,,5,,,,0,29,,,,choice_videos/3_067.mp4,,,,,,,test,,,,,av_experiment,,10,29,2021-04-07_10h24.20.769,,,,clown,,,,,,,tadelt,0,aron,,0,,,,Win32,,59.898173105695214,1080,,,,,118,,frech,Chrome,,images/clown.png,,SESSION,,Den stolzen Clown tadelt der freche Kasper.,,av_experiment,dick,,,,,
﻿1,,1920,,,,,,,5,,1,2021-04-07_10h24.20.769,,0.4671049999888055,1,,0,,,räuber,2021.1.2,streng,left,,,images/räuber.png,,,,,,,,,,,30,,5,,,,1,30,,,,choice_videos/1_056.mp4,,,,,,,test,,,,,av_experiment,,0,30,2021-04-07_10h24.20.769,,,,zauberer,,,,,,,jagt,0,aron,,10,,,,Win32,,59.898173105695214,1080,,,,,101,,böse,Chrome,,images/zauberer.png,,SESSION,,Den strengen Zauberer jagt der böse Räuber.,,av_experiment,groß,,,,,
﻿1,,1920,,,,,,,5,,0,2021-04-07_10h24.20.769,,1.455004999996163,1,,0,,,frosch,2021.1.2,arm,left,,,images/frosch.png,,,,,,,,,,,31,,5,,,,1,31,,,,choice_videos/0_033.mp4,,,,,,,test,,,,,av_experiment,,0,31,2021-04-07_10h24.20.769,,,,pinguin,,,,,,,tritt,0,aron,,0,,,,Win32,,59.898173105695214,1080,,,,,55,,nass,Chrome,,images/pinguin.png,,SESSION,,Der arme Pinguin tritt den nassen Frosch.,,av_experiment,blind,,,,,
﻿1,,1920,,,,,,,5,,0,2021-04-07_10h24.20.769,,0.7214900000253692,1,,0,,2.863725000002887,koch,2021.1.2,faul,right,,,images/koch.png,,,return,,,,,,,,32,,5,,,,0,32,,,,choice_videos/0_046.mp4,,,,,,,test,,,,,av_experiment,,0,32,2021-04-07_10h24.20.769,,,,bäcker,,,,,,,ersticht,0,aron,,0,,,,Win32,,59.898173105695214,1080,,,,,80,,böse,Chrome,,images/bäcker.png,,SESSION,,Den faulen Bäcker ersticht der böse Koch.,,av_experiment,nett,,,,,
﻿0,,1920,,,,,,,5,,4,2021-04-07_10h24.20.769,,2.284730000013951,1,,0,,,junge,2021.1.2,dick,right,,,images/junge.png,,,,,,,,,,,33,,5,,,,1,33,,,,choice_videos/4_074.mp4,,,,,,,test,,,,,av_experiment,,400,33,2021-04-07_10h24.20.769,,,,nikolaus,,,,,,,umarmt,0,aron,,0,,,,Win32,,59.898173105695214,1080,,,,,129,,klein,Chrome,,images/nikolaus.png,,SESSION,,Den dicken Nikolaus umarmt der kleine Junge.,,av_experiment,blind,,,,,
﻿0,,1920,,,,,,,5,,1,2021-04-07_10h24.20.769,,1.4125099999946542,1,,0,,,soldat,2021.1.2,blind,right,,,images/soldat.png,,,,,,,,,,,34,,5,,,,1,34,,,,choice_videos/1_002.mp4,,,,,,,test,,,,,av_experiment,,0,34,2021-04-07_10h24.20.769,,,,jäger,,,,,,,erschießt,0,aron,,10,,,,Win32,,59.898173105695214,1080,,,,,2,,brav,Chrome,,images/jäger.png,,SESSION,,Der blinde Jäger erschießt den braven Soldaten.,,av_experiment,brav,,,,,
﻿1,,1920,,,,,,,5,,4,2021-04-07_10h24.20.769,,0.28484500001650304,1,,0,,,lehrer,2021.1.2,arm,right,,,images/lehrer.png,,,,,,,,,,,35,,5,,,,0,35,,,,choice_videos/4_071.mp4,,,,,,,test,,,,,av_experiment,,400,35,2021-04-07_10h24.20.769,,,,junge,,,,,,,tröstet,0,aron,,0,,,,Win32,,59.898173105695214,1080,,,,,124,,nett,Chrome,,images/junge.png,,SESSION,,Den armen Jungen tröstet der nette Lehrer.,,av_experiment,klug,,,,,
﻿0,,1920,,,,,,,5,,0,2021-04-07_10h24.20.769,,0.6296399999991991,1,,0,,,bauer,2021.1.2,stark,right,,,images/bauer.png,,,,,,,,,,,36,,5,,,,2,36,,,,choice_videos/0_065.mp4,,,,,,,test,,,,,av_experiment,,0,36,2021-04-07_10h24.20.769,,,,tourist,,,,,,,schubst,0,aron,,0,,,,Win32,,59.898173105695214,1080,,,,,155,,lahm,Chrome,,images/tourist.png,,SESSION,,Den starken Touristen schubst der lahme Bauer.,,av_experiment,süß,,,,,
﻿0,,1920,,,,,,,5,,3,2021-04-07_10h24.20.769,,1.8896050000330433,1,,0,,,vater,2021.1.2,süß,right,,,images/vater.png,,,,,,,,,,,37,,5,,,,2,37,,,,choice_videos/3_018.mp4,,,,,,,test,,,,,av_experiment,,10,37,2021-04-07_10h24.20.769,,,,junge,,,,,,,küsst,0,aron,,0,,,,Win32,,59.898173105695214,1080,,,,,148,,lieb,Chrome,,images/junge.png,,SESSION,,Der süße Junge küsst den lieben Vater.,,av_experiment,flink,,,,,
﻿1,,1920,,,,,,,5,,4,2021-04-07_10h24.20.769,,0.2170250000199303,1,,0,,,cowboy,2021.1.2,frech,up,,,images/cowboy.png,,,,,,,,,,,38,,5,,,,2,38,,,,choice_videos/4_057.mp4,,,,,,,test,,,,,av_experiment,,400,38,2021-04-07_10h24.20.769,,,,kobold,,,,,,,jagt,0,aron,,0,,,,Win32,,59.898173105695214,1080,,,,,154,,rüde,Chrome,,images/kobold.png,,SESSION,,Den frechen Kobold jagt der rüde Cowboy.,,av_experiment,blind,,,,,
﻿1,,1920,,,,,,,5,,2,2021-04-07_10h24.20.769,,0.2887699999846518,1,,0,,,elch,2021.1.2,schnell,right,,,images/elch.png,,,,,,,,,,,39,,5,,,,0,39,,,,choice_videos/2_076.mp4,,,,,,,test,,,,,av_experiment,,0,39,2021-04-07_10h24.20.769,,,,elefant,,,,,,,verfolgt,0,aron,,400,,,,Win32,,59.898173105695214,1080,,,,,132,,lahm,Chrome,,images/elefant.png,,SESSION,,Den schnellen Elefanten verfolgt der lahme Elch.,,av_experiment,böse,,,,,
﻿0,,1920,,,,,,,5,,0,2021-04-07_10h24.20.769,,1.3435749999480322,1,,0,,,roboter,2021.1.2,groß,right,,,images/roboter.png,,,,,,,,,,,40,,5,,,,1,40,,,,choice_videos/0_038.mp4,,,,,,,test,,,,,av_experiment,,0,40,2021-04-07_10h24.20.769,,,,bär,,,,,,,weckt,0,aron,,0,,,,Win32,,59.898173105695214,1080,,,,,65,,still,Chrome,,images/bär.png,,SESSION,,Der große Bär weckt den stillen Roboter.,,av_experiment,fies,,,,,
﻿1,,1920,,,,,,,5,,4,2021-04-07_10h24.20.769,,0.29011000000173226,1,,0,,,zauberer,2021.1.2,blind,right,,,images/zauberer.png,,,,,,,,,,,41,,5,,,,0,41,,,,choice_videos/4_009.mp4,,,,,,,test,,,,,av_experiment,,400,41,2021-04-07_10h24.20.769,,,,kasper,,,,,,,fesselt,0,aron,,0,,,,Win32,,59.898173105695214,1080,,,,,14,,groß,Chrome,,images/kasper.png,,SESSION,,Der blinde Kasper fesselt den großen Zauberer.,,av_experiment,süß,,,,,
﻿0,,1920,,,,,,,5,,2,2021-04-07_10h24.20.769,,0.3833749999757856,1,,0,,,soldat,2021.1.2,fies,left,,,images/soldat.png,,,,,,,,,,,42,,5,,,,0,42,,,,choice_videos/2_003.mp4,,,,,,,test,,,,,av_experiment,,0,42,2021-04-07_10h24.20.769,,,,pirat,,,,,,,erschießt,0,aron,,400,,,,Win32,,59.898173105695214,1080,,,,,3,,brav,Chrome,,images/pirat.png,,SESSION,,Der fiese Pirat erschießt den braven Soldaten.,,av_experiment,schwarz,,,,,
﻿1,,1920,,,,,,,5,,0,2021-04-07_10h24.20.769,,0.6146400000434369,1,,0,,,postbote,2021.1.2,schwer,right,,,images/postbote.png,,,,,,,,,,,43,,5,,,,0,43,,,,choice_videos/0_075.mp4,,,,,,,test,,,,,av_experiment,,0,43,2021-04-07_10h24.20.769,,,,boxer,,,,,,,verfolgt,0,aron,,0,,,,Win32,,59.898173105695214,1080,,,,,130,,dick,Chrome,,images/boxer.png,,SESSION,,Den schweren Boxer verfolgt der dicke Postbote.,,av_experiment,dick,,,,,
﻿1,,1920,,,,,,,5,,3,2021-04-07_10h24.20.769,,0.171535000030417,1,,0,,,zauberer,2021.1.2,frech,up,,,images/zauberer.png,,,,,,,,,,,44,,5,,,,2,44,,,,choice_videos/3_068.mp4,,,,,,,test,,,,,av_experiment,,10,44,2021-04-07_10h24.20.769,,,,kobold,,,,,,,tadelt,0,aron,,0,,,,Win32,,59.898173105695214,1080,,,,,158,,böse,Chrome,,images/kobold.png,,SESSION,,Den frechen Kobold tadelt der böse Zauberer.,,av_experiment,böse,,,,,
﻿1,,1920,,,,,,,5,,2,2021-04-07_10h24.20.769,,0.13685000000987202,1,,0,,,prinz,2021.1.2,alt,right,,,images/prinz.png,,,,,,,,,,,45,,5,,,,0,45,,,,choice_videos/2_070.mp4,,,,,,,test,,,,,av_experiment,,0,45,2021-04-07_10h24.20.769,,,,könig,,,,,,,tröstet,0,aron,,400,,,,Win32,,59.898173105695214,1080,,,,,122,,jung,Chrome,,images/könig.png,,SESSION,,Den alten König tröstet der junge Prinz.,,av_experiment,müde,,,,,
﻿1,,1920,,,,,,,5,,4,2021-04-07_10h24.20.769,,0.30456999997841194,1,,0,,,räuber,2021.1.2,brav,right,,,images/räuber.png,,,,,,,,,,,46,,5,,,,0,46,,,,choice_videos/4_064.mp4,,,,,,,test,,,,,av_experiment,,400,46,2021-04-07_10h24.20.769,,,,soldat,,,,,,,schlägt,0,aron,,0,,,,Win32,,59.898173105695214,1080,,,,,114,,böse,Chrome,,images/soldat.png,,SESSION,,Den braven Soldaten schlägt der böse Räuber.,,av_experiment,stur,,,,,
﻿0,,1920,,,,,,,5,,0,2021-04-07_10h24.20.769,,0.57523499999661,1,,0,,,gärtner,2021.1.2,dreist,right,,,images/gärtner.png,,,,,,,,,,,47,,5,,,,1,47,,,,choice_videos/0_048.mp4,,,,,,,test,,,,,av_experiment,,0,47,2021-04-07_10h24.20.769,,,,postbote,,,,,,,erwürgt,0,aron,,0,,,,Win32,,59.898173105695214,1080,,,,,85,,böse,Chrome,,images/postbote.png,,SESSION,,Den dreisten Postboten erwürgt der böse Gärtner.,,av_experiment,blind,,,,,
﻿0,,1920,,,,,,,5,,3,2021-04-07_10h24.20.769,,0.11767500004498288,1,,0,,2.48076000000583,roboter,2021.1.2,faul,left,,,images/roboter.png,,,return,,,,,,,,48,,5,,,,0,48,,,,choice_videos/3_040.mp4,,,,,,,test,,,,,av_experiment,,10,48,2021-04-07_10h24.20.769,,,,drache,,,,,,,berührt,0,aron,,0,,,,Win32,,59.898173105695214,1080,,,,,68,,klug,Chrome,,images/drache.png,,SESSION,,Den faulen Drachen berührt der kluge Roboter.,,av_experiment,faul,,,,,
﻿1,,1920,,,,,,,5,,1,2021-04-07_10h24.20.769,,1.7577300000120886,1,,0,,,frisör,2021.1.2,still,left,,,images/frisör.png,,,,,,,,,,,49,,5,,,,1,49,,,,choice_videos/1_013.mp4,,,,,,,test,,,,,av_experiment,,0,49,2021-04-07_10h24.20.769,,,,postbote,,,,,,,grüßt,0,aron,,10,,,,Win32,,59.898173105695214,1080,,,,,21,,dick,Chrome,,images/postbote.png,,SESSION,,Der stille Postbote grüßt den dicken Frisör.,,av_experiment,frech,,,,,
﻿1,,1920,,,,,,,5,,4,2021-04-07_10h24.20.769,,1.6260849999962375,1,,0,,,soldat,2021.1.2,nett,left,,,images/soldat.png,,,,,,,,,,,50,,5,,,,1,50,,,,choice_videos/4_019.mp4,,,,,,,test,,,,,av_experiment,,400,50,2021-04-07_10h24.20.769,,,,papst,,,,,,,küsst,0,aron,,0,,,,Win32,,59.898173105695214,1080,,,,,29,,gut,Chrome,,images/papst.png,,SESSION,,Der nette Papst küsst den guten Soldaten.,,av_experiment,streng,,,,,
﻿0,,1920,,,,,,,5,,0,2021-04-07_10h24.20.769,,3.026884999999311,1,,0,,,tourist,2021.1.2,flink,up,,,images/tourist.png,,,,,,,,,,,51,,5,,,,0,51,,,,choice_videos/0_036.mp4,,,,,,,test,,,,,av_experiment,,0,51,2021-04-07_10h24.20.769,,,,maler,,,,,,,verfolgt,0,aron,,0,,,,Win32,,59.898173105695214,1080,,,,,60,,blass,Chrome,,images/maler.png,,SESSION,,Der flinke Maler verfolgt den blassen Touristen.,,av_experiment,alt,,,,,
﻿0,,1920,,,,,,,5,,4,2021-04-07_10h24.20.769,,2.0283049999852665,1,,0,,,löwe,2021.1.2,stur,up,,,images/löwe.png,,,,,,,,,,,52,,5,,,,0,52,,,,choice_videos/4_022.mp4,,,,,,,test,,,,,av_experiment,,400,52,2021-04-07_10h24.20.769,,,,esel,,,,,,,malt,0,aron,,0,,,,Win32,,59.898173105695214,1080,,,,,34,,alt,Chrome,,images/esel.png,,SESSION,,Der sture Esel malt den alten Löwen.,,av_experiment,schlau,,,,,
﻿1,,1920,,,,,,,5,,1,2021-04-07_10h24.20.769,,0.890030000009574,1,,0,,,kobold,2021.1.2,rüde,up,,,images/kobold.png,,,,,,,,,,,53,,5,,,,2,53,,,,choice_videos/1_016.mp4,,,,,,,test,,,,,av_experiment,,0,53,2021-04-07_10h24.20.769,,,,cowboy,,,,,,,jagt,0,aron,,10,,,,Win32,,59.898173105695214,1080,,,,,146,,frech,Chrome,,images/cowboy.png,,SESSION,,Der rüde Cowboy jagt den frechen Kobold.,,av_experiment,still,,,,,
﻿0,,1920,,,,,,,5,,2,2021-04-07_10h24.20.769,,0.607674999977462,1,,0,,,ritter,2021.1.2,böse,up,,,images/ritter.png,,,,,,,,,,,54,,5,,,,0,54,,,,choice_videos/2_031.mp4,,,,,,,test,,,,,av_experiment,,0,54,2021-04-07_10h24.20.769,,,,wikinger,,,,,,,streichelt,0,aron,,400,,,,Win32,,59.898173105695214,1080,,,,,52,,dick,Chrome,,images/wikinger.png,,SESSION,,Der böse Wikinger streichelt den dicken Ritter.,,av_experiment,frech,,,,,
﻿1,,1920,,,,,,,5,,0,2021-04-07_10h24.20.769,,0.29764000000432134,1,,0,,,räuber,2021.1.2,brav,left,,,images/räuber.png,,,,,,,,,,,55,,5,,,,1,55,,,,choice_videos/0_064.mp4,,,,,,,test,,,,,av_experiment,,0,55,2021-04-07_10h24.20.769,,,,soldat,,,,,,,schlägt,0,aron,,0,,,,Win32,,59.898173105695214,1080,,,,,115,,böse,Chrome,,images/soldat.png,,SESSION,,Den braven Soldaten schlägt der böse Räuber.,,av_experiment,groß,,,,,
﻿0,,1920,,,,,,,5,,2,2021-04-07_10h24.20.769,,2.0192600000300445,1,,0,,,maulwurf,2021.1.2,krank,right,,,images/maulwurf.png,,,,,,,,,,,56,,5,,,,1,56,,,,choice_videos/2_060.mp4,,,,,,,test,,,,,av_experiment,,0,56,2021-04-07_10h24.20.769,,,,hase,,,,,,,küsst,0,aron,,400,,,,Win32,,59.898173105695214,1080,,,,,107,,scheu,Chrome,,images/hase.png,,SESSION,,Den kranken Hasen küsst der scheue Maulwurf.,,av_experiment,arm,,,,,
﻿1,,1920,,,,,,,5,,0,2021-04-07_10h24.20.769,,0.253400000045076,1,,0,,,kobold,2021.1.2,rüde,up,,,images/kobold.png,,,,,,,,,,,57,,5,,,,2,57,,,,choice_videos/0_016.mp4,,,,,,,test,,,,,av_experiment,,0,57,2021-04-07_10h24.20.769,,,,cowboy,,,,,,,jagt,0,aron,,0,,,,Win32,,59.898173105695214,1080,,,,,145,,frech,Chrome,,images/cowboy.png,,SESSION,,Der rüde Cowboy jagt den frechen Kobold.,,av_experiment,fies,,,,,
﻿0,,1920,,,,,,,5,,3,2021-04-07_10h24.20.769,,0.7888350000139326,1,,0,,,koala,2021.1.2,dick,up,,,images/koala.png,,,,,,,,,,,58,,5,,,,1,58,,,,choice_videos/3_021.mp4,,,,,,,test,,,,,av_experiment,,10,58,2021-04-07_10h24.20.769,,,,panda,,,,,,,malt,0,aron,,0,,,,Win32,,59.898173105695214,1080,,,,,33,,klein,Chrome,,images/panda.png,,SESSION,,Der dicke Panda malt den kleinen Koala.,,av_experiment,böse,,,,,
﻿0,,1920,,,,,,,5,,4,2021-04-07_10h24.20.769,,0.26735000003827736,1,,0,,,koala,2021.1.2,klein,right,,,images/koala.png,,,,,,,,,,,59,,5,,,,1,59,,,,choice_videos/4_012.mp4,,,,,,,test,,,,,av_experiment,,400,59,2021-04-07_10h24.20.769,,,,pinguin,,,,,,,filmt,0,aron,,0,,,,Win32,,59.898173105695214,1080,,,,,19,,süß,Chrome,,images/pinguin.png,,SESSION,,Der kleine Pinguin filmt den süßen Koala.,,av_experiment,süß,,,,,
﻿0,,1920,,,,,,,5,,2,2021-04-07_10h24.20.769,,1.378020000003744,1,,0,,,zauberer,2021.1.2,frech,right,,,images/zauberer.png,,,,,,,,,,,60,,5,,,,2,60,,,,choice_videos/2_068.mp4,,,,,,,test,,,,,av_experiment,,0,60,2021-04-07_10h24.20.769,,,,kobold,,,,,,,tadelt,0,aron,,400,,,,Win32,,59.898173105695214,1080,,,,,157,,böse,Chrome,,images/kobold.png,,SESSION,,Den frechen Kobold tadelt der böse Zauberer.,,av_experiment,streng,,,,,
﻿1,,1920,,,,,,,5,,3,2021-04-07_10h24.20.769,,1.487639999948442,1,,0,,,wikinger,2021.1.2,stark,right,,,images/wikinger.png,,,,,,,,,,,61,,5,,,,0,61,,,,choice_videos/3_029.mp4,,,,,,,test,,,,,av_experiment,,10,61,2021-04-07_10h24.20.769,,,,koch,,,,,,,schubst,0,aron,,0,,,,Win32,,59.898173105695214,1080,,,,,48,,blind,Chrome,,images/koch.png,,SESSION,,Der starke Koch schubst den blinden Wikinger.,,av_experiment,schwer,,,,,
﻿1,,1920,,,,,,,5,,1,2021-04-07_10h24.20.769,,1.0884250000235625,1,,0,,,pinguin,2021.1.2,süß,right,,,images/pinguin.png,,,,,,,,,,,62,,5,,,,0,62,,,,choice_videos/1_054.mp4,,,,,,,test,,,,,av_experiment,,0,62,2021-04-07_10h24.20.769,,,,koala,,,,,,,filmt,0,aron,,10,,,,Win32,,59.898173105695214,1080,,,,,96,,klug,Chrome,,images/koala.png,,SESSION,,Den süßen Koala filmt der kleine Pinguin.,,av_experiment,klug,,,,,
﻿0,,1920,,,,,,,5,,0,2021-04-07_10h24.20.769,,1.7873900000122376,1,,0,,,soldat,2021.1.2,nett,right,,,images/soldat.png,,,,,,,,,,,63,,5,,,,1,63,,,,choice_videos/0_059.mp4,,,,,,,test,,,,,av_experiment,,0,63,2021-04-07_10h24.20.769,,,,papst,,,,,,,küsst,0,aron,,0,,,,Win32,,59.898173105695214,1080,,,,,105,,gut,Chrome,,images/papst.png,,SESSION,,Den netten Papst küsst der gute Soldat.,,av_experiment,süß,,,,,
﻿1,,1920,,,,,,,5,,4,2021-04-07_10h24.20.769,,0.2596800000173971,1,,0,,1.2782699999515899,gärtner,2021.1.2,dreist,right,,,images/gärtner.png,,,return,,,,,,,,64,,5,,,,0,64,,,,choice_videos/4_048.mp4,,,,,,,test,,,,,av_experiment,,400,64,2021-04-07_10h24.20.769,,,,postbote,,,,,,,erwürgt,0,aron,,0,,,,Win32,,59.898173105695214,1080,,,,,84,,böse,Chrome,,images/postbote.png,,SESSION,,Den dreisten Postboten erwürgt der böse Gärtner.,,av_experiment,schwer,,,,,
﻿1,,1920,,,,,,,5,,1,2021-04-07_10h24.20.769,,2.0070399999967776,1,,0,,,polizist,2021.1.2,böse,right,,,images/polizist.png,,,,,,,,,,,65,,5,,,,0,65,,,,choice_videos/1_044.mp4,,,,,,,test,,,,,av_experiment,,0,65,2021-04-07_10h24.20.769,,,,jäger,,,,,,,erschießt,0,aron,,10,,,,Win32,,59.898173105695214,1080,,,,,76,,brav,Chrome,,images/jäger.png,,SESSION,,Den bösen Jäger erschießt der brave Polizist.,,av_experiment,nett,,,,,
﻿0,,1920,,,,,,,5,,3,2021-04-07_10h24.20.769,,1.7781400000094436,1,,0,,,prinz,2021.1.2,alt,right,,,images/prinz.png,,,,,,,,,,,66,,5,,,,1,66,,,,choice_videos/3_070.mp4,,,,,,,test,,,,,av_experiment,,10,66,2021-04-07_10h24.20.769,,,,könig,,,,,,,tröstet,0,aron,,0,,,,Win32,,59.898173105695214,1080,,,,,123,,jung,Chrome,,images/könig.png,,SESSION,,Den alten König tröstet der junge Prinz.,,av_experiment,taub,,,,,
﻿1,,1920,,,,,,,5,,1,2021-04-07_10h24.20.769,,0.1354200000059791,1,,0,,,maler,2021.1.2,brav,right,,,images/maler.png,,,,,,,,,,,67,,5,,,,0,67,,,,choice_videos/1_078.mp4,,,,,,,test,,,,,av_experiment,,0,67,2021-04-07_10h24.20.769,,,,kasper,,,,,,,weckt,0,aron,,10,,,,Win32,,59.898173105695214,1080,,,,,136,,blind,Chrome,,images/kasper.png,,SESSION,,Den braven Kasper weckt der blinde Maler.,,av_experiment,schwarz,,,,,
﻿1,,1920,,,,,,,5,,3,2021-04-07_10h24.20.769,,2.2711750000016764,1,,0,,,soldat,2021.1.2,nett,right,,,images/soldat.png,,,,,,,,,,,68,,5,,,,0,68,,,,choice_videos/3_019.mp4,,,,,,,test,,,,,av_experiment,,10,68,2021-04-07_10h24.20.769,,,,papst,,,,,,,küsst,0,aron,,0,,,,Win32,,59.898173105695214,1080,,,,,28,,gut,Chrome,,images/papst.png,,SESSION,,Der nette Papst küsst den guten Soldaten.,,av_experiment,wach,,,,,
﻿1,,1920,,,,,,,5,,2,2021-04-07_10h24.20.769,,0.8555899999919347,1,,0,,,gärtner,2021.1.2,nett,right,,,images/gärtner.png,,,,,,,,,,,69,,5,,,,0,69,,,,choice_videos/2_037.mp4,,,,,,,test,,,,,av_experiment,,0,69,2021-04-07_10h24.20.769,,,,maler,,,,,,,weckt,0,aron,,400,,,,Win32,,59.898173105695214,1080,,,,,62,,müde,Chrome,,images/maler.png,,SESSION,,Der nette Maler weckt den müden Gärtner.,,av_experiment,nett,,,,,
﻿0,,1920,,,,,,,5,,1,2021-04-07_10h24.20.769,,0.3372549999621697,1,,0,,,elch,2021.1.2,taub,right,,,images/elch.png,,,,,,,,,,,70,,5,,,,1,70,,,,choice_videos/1_007.mp4,,,,,,,test,,,,,av_experiment,,0,70,2021-04-07_10h24.20.769,,,,elefant,,,,,,,fängt,0,aron,,10,,,,Win32,,59.898173105695214,1080,,,,,11,,müde,Chrome,,images/elefant.png,,SESSION,,Der taube Elefant fängt den müden Elch.,,av_experiment,böse,,,,,
﻿0,,1920,,,,,,,5,,2,2021-04-07_10h24.20.769,,0.4867550000199117,1,,0,,,maler,2021.1.2,brav,right,,,images/maler.png,,,,,,,,,,,71,,5,,,,1,71,,,,choice_videos/2_039.mp4,,,,,,,test,,,,,av_experiment,,0,71,2021-04-07_10h24.20.769,,,,kasper,,,,,,,weckt,0,aron,,400,,,,Win32,,59.898173105695214,1080,,,,,67,,blind,Chrome,,images/kasper.png,,SESSION,,Der brave Kasper weckt den blinden Maler.,,av_experiment,stur,,,,,
﻿1,,1920,,,,,,,5,,1,2021-04-07_10h24.20.769,,0.01848000002792105,1,,0,,,drache,2021.1.2,groß,right,,,images/drache.png,,,,,,,,,,,72,,5,,,,0,72,,,,choice_videos/1_023.mp4,,,,,,,test,,,,,av_experiment,,0,72,2021-04-07_10h24.20.769,,,,büffel,,,,,,,malt,0,aron,,10,,,,Win32,,59.898173105695214,1080,,,,,36,,gut,Chrome,,images/büffel.png,,SESSION,,Der große Büffel malt den guten Drachen.,,av_experiment,alt,,,,,
﻿1,,1920,,,,,,,5,,3,2021-04-07_10h24.20.769,,0.28571999998530373,1,,0,,,metzger,2021.1.2,gut,left,,,images/metzger.png,,,,,,,,,,,73,,5,,,,1,73,,,,choice_videos/3_042.mp4,,,,,,,test,,,,,av_experiment,,10,73,2021-04-07_10h24.20.769,,,,lehrer,,,,,,,beschattet,0,aron,,0,,,,Win32,,59.898173105695214,1080,,,,,73,,alt,Chrome,,images/lehrer.png,,SESSION,,Den guten Lehrer beschattet der alte Metzger.,,av_experiment,alt,,,,,
﻿1,,1920,,,,,,,5,,1,2021-04-07_10h24.20.769,,0.3912150000105612,1,,0,,,maler,2021.1.2,brav,right,,,images/maler.png,,,,,,,,,,,74,,5,,,,0,74,,,,choice_videos/1_039.mp4,,,,,,,test,,,,,av_experiment,,0,74,2021-04-07_10h24.20.769,,,,kasper,,,,,,,weckt,0,aron,,10,,,,Win32,,59.898173105695214,1080,,,,,66,,blind,Chrome,,images/kasper.png,,SESSION,,Der brave Kasper weckt den blinden Maler.,,av_experiment,brav,,,,,
﻿0,,1920,,,,,,,5,,4,2021-04-07_10h24.20.769,,0.010210000036749989,1,,0,,,junge,2021.1.2,nett,right,,,images/junge.png,,,,,,,,,,,75,,5,,,,1,75,,,,choice_videos/4_035.mp4,,,,,,,test,,,,,av_experiment,,400,75,2021-04-07_10h24.20.769,,,,lehrer,,,,,,,tröstet,0,aron,,0,,,,Win32,,59.898173105695214,1080,,,,,59,,arm,Chrome,,images/lehrer.png,,SESSION,,Der nette Lehrer tröstet den armen Jungen.,,av_experiment,dick,,,,,
﻿1,,1920,,,,,,,5,,0,2021-04-07_10h24.20.769,,0.08286999998381361,1,,0,,,bräutigam,2021.1.2,dick,up,,,images/bräutigam.png,,,,,,,,,,,76,,5,,,,2,76,,,,choice_videos/0_072.mp4,,,,,,,test,,,,,av_experiment,,0,76,2021-04-07_10h24.20.769,,,,mönch,,,,,,,tröstet,0,aron,,0,,,,Win32,,59.898173105695214,1080,,,,,160,,hübsch,Chrome,,images/mönch.png,,SESSION,,Den dicken Mönch tröstet der hübsche Bräutigam.,,av_experiment,böse,,,,,
﻿0,,1920,,,,,,,5,,2,2021-04-07_10h24.20.769,,0.316274999990128,1,,0,,,koch,2021.1.2,schwarz,right,,,images/koch.png,,,,,,,,,,,77,,5,,,,1,77,,,,choice_videos/2_049.mp4,,,,,,,test,,,,,av_experiment,,0,77,2021-04-07_10h24.20.769,,,,zauberer,,,,,,,erwürgt,0,aron,,400,,,,Win32,,59.898173105695214,1080,,,,,87,,stur,Chrome,,images/zauberer.png,,SESSION,,Den schwarzen Zauberer erwürgt der sture Koch.,,av_experiment,fies,,,,,
﻿1,,1920,,,,,,,5,,1,2021-04-07_10h24.20.769,,0.12388999998802319,1,,0,,,panda,2021.1.2,müde,right,,,images/panda.png,,,,,,,,,,,78,,5,,,,0,78,,,,choice_videos/1_010.mp4,,,,,,,test,,,,,av_experiment,,0,78,2021-04-07_10h24.20.769,,,,drache,,,,,,,fesselt,0,aron,,10,,,,Win32,,59.898173105695214,1080,,,,,16,,groß,Chrome,,images/drache.png,,SESSION,,Der müde Drache fesselt den großen Panda.,,av_experiment,grau,,,,,
﻿0,,1920,,,,,,,5,,2,2021-04-07_10h24.20.769,,0.1890700000221841,1,,0,,,pinguin,2021.1.2,süß,right,,,images/pinguin.png,,,,,,,,,,,79,,5,,,,1,79,,,,choice_videos/2_054.mp4,,,,,,,test,,,,,av_experiment,,0,79,2021-04-07_10h24.20.769,,,,koala,,,,,,,filmt,0,aron,,400,,,,Win32,,59.898173105695214,1080,,,,,97,,klug,Chrome,,images/koala.png,,SESSION,,Den süßen Koala filmt der kleine Pinguin.,,av_experiment,still,,,,,
﻿,,1920,,,,,,,5,,4,2021-04-07_10h24.20.769,,,,1,0,,,,2021.1.2,,,,,,,,,0,,,,,,0,,,5,,,,,,,,2.0968449999927543,sj_videos/4_082.mp4,,,,,left,0,test,4.100485000002664,,,,av_experiment,right,400,,2021-04-07_10h24.20.769,,,,,,1,0,,,,,,aron,,0,,,return,Win32,,59.898173105695214,1080,,,,1,1,,,Chrome,,,,SESSION,,"Der Punker, der die Maler beschattet, niest.",0.2830200000316836,av_experiment,,,,,,
﻿,,1920,,,,,,,5,,1,2021-04-07_10h24.20.769,,,,0,0,,,,2021.1.2,,,,,,,,,1,,,,,,1,,,5,,,,,,,,0.7100349999964237,sj_videos/1_089.mp4,,,,,left,7,test,,,,,av_experiment,right,0,,2021-04-07_10h24.20.769,,,,,,1,0,,,,,,aron,,10,,,,Win32,,59.898173105695214,1080,,,,0,8,,,Chrome,,,,SESSION,,"Der Bräutigam, der die Riesen ersticht, lacht.",0.22417499998118728,av_experiment,,,,,,
﻿,,1920,,,,,,,5,,1,2021-04-07_10h24.20.769,,,,1,0,,,,2021.1.2,,,,,,,,,2,,,,,,2,,,5,,,,,,,,0.9423600000445731,sj_videos/1_084.mp4,,,,,right,2,test,,,,,av_experiment,left,0,,2021-04-07_10h24.20.769,,,,,,1,0,,,,,,aron,,10,,,,Win32,,59.898173105695214,1080,,,,1,3,,,Chrome,,,,SESSION,,"Der Lehrer, der die Models bestiehlt, zittert.",0.2267050000373274,av_experiment,,,,,,
﻿,,1920,,,,,,,5,,0,2021-04-07_10h24.20.769,,,,1,0,,,,2021.1.2,,,,,,,,,3,,,,,,3,,,5,,,,,,,,1.3007749999524094,sj_videos/0_083.mp4,,,,,right,1,test,,,,,av_experiment,right,0,,2021-04-07_10h24.20.769,,,,,,1,0,,,,,,aron,,0,,,,Win32,,59.898173105695214,1080,,,,1,2,,,Chrome,,,,SESSION,,"Der Maler, der die Vampire beschattet, gähnt.",0.14447499997913837,av_experiment,,,,,,
﻿,,1920,,,,,,,5,,3,2021-04-07_10h24.20.769,,,,0,0,,,,2021.1.2,,,,,,,,,4,,,,,,4,,,5,,,,,,,,0.7122399999643676,sj_videos/3_086.mp4,,,,,right,4,test,,,,,av_experiment,right,10,,2021-04-07_10h24.20.769,,,,,,1,0,,,,,,aron,,0,,,,Win32,,59.898173105695214,1080,,,,1,5,,,Chrome,,,,SESSION,,"Der Frisör, der die Bäcker erschießt, niest.",0.20843499997863546,av_experiment,,,,,,
﻿,,1920,,,,,,,5,,0,2021-04-07_10h24.20.769,,,,1,0,,,,2021.1.2,,,,,,,,,5,,,,,,5,,,5,,,,,,,,0.4445699999923818,sj_videos/0_088.mp4,,,,,right,6,test,,,,,av_experiment,left,0,,2021-04-07_10h24.20.769,,,,,,1,0,,,,,,aron,,0,,,,Win32,,59.898173105695214,1080,,,,0,7,,,Chrome,,,,SESSION,,"Der Koch, der die Touristinnen erschießt, niest.",0.22366999997757375,av_experiment,,,,,,
﻿,,1920,,,,,,,5,,4,2021-04-07_10h24.20.769,,,,1,0,,,,2021.1.2,,,,,,,,,6,,,,,,6,,,5,,,,,,,,0.9390850000199862,sj_videos/4_087.mp4,,,,,left,5,test,,,,,av_experiment,right,400,,2021-04-07_10h24.20.769,,,,,,1,0,,,,,,aron,,0,,,,Win32,,59.898173105695214,1080,,,,1,6,,,Chrome,,,,SESSION,,"Der Frisör, der die Köchinnen erschießt, grinst.",0.31205000000773,av_experiment,,,,,,
﻿,,1920,,,,,,,5,,2,2021-04-07_10h24.20.769,,,,1,0,,,,2021.1.2,,,,,,,,,7,,,,,,7,,,5,,,,,,,,0.9204449999961071,sj_videos/2_090.mp4,,,,,right,8,test,,,,,av_experiment,left,0,,2021-04-07_10h24.20.769,,,,,,1,0,,,,,,aron,,400,,,,Win32,,59.898173105695214,1080,,,,1,9,,,Chrome,,,,SESSION,,"Der Maler, der die Witwen ersticht, zittert.",0.28423500002827495,av_experiment,,,,,,
﻿,,1920,,,,,,,5,,3,2021-04-07_10h24.20.769,,,,0,0,,,,2021.1.2,,,,,,,,,8,,,,,,8,,,5,,,,,,,,0.2917800000286661,sj_videos/3_091.mp4,,,,,right,9,test,,,,,av_experiment,right,10,,2021-04-07_10h24.20.769,,,,,,1,0,,,,,,aron,,0,,,,Win32,,59.898173105695214,1080,,,,1,10,,,Chrome,,,,SESSION,,"Der Richter, der die Radfahrer erwürgt, weint.",0.16074500000104308,av_experiment,,,,,,
﻿,,1920,,,,,,,5,,2,2021-04-07_10h24.20.769,,,,0,0,,,,2021.1.2,,,,,,,,,9,,,,,,9,,,5,,,,,,,,0.5499699999927543,sj_videos/2_085.mp4,,,,,left,3,test,,,,,av_experiment,right,0,,2021-04-07_10h24.20.769,,,,,,1,0,,,,,,aron,,400,,,,Win32,,59.898173105695214,1080,,,,0,4,,,Chrome,,,,SESSION,,"Der Mönch, der die Astronauten erschießt, lacht.",0.17399500001920387,av_experiment,,,,,,
﻿,,1920,0,,,,,,5,,,2021-04-07_10h24.20.769,,,,,0,,,,2021.1.2,,,,,,,,,,,,,,,,,,5,,,,,,,,,,,0,,,,,test,,,0,,av_experiment,,,,2021-04-07_10h24.20.769,,,,,,,,1,,,,,aron,,,,,,Win32,,59.898173105695214,1080,,,,,,,,Chrome,,,0,SESSION,,,,av_experiment,,,,,,
﻿0,,1920,,,,,,,5,,3,2021-04-07_10h24.20.769,,4.226740000012796,1,,0,,24.6638699999894,tourist,2021.1.2,müde,right,,,images/tourist.png,,,return,,,,,,,,80,,5,,,,1,80,,,,choice_videos/3_014.mp4,,,,,,,test,,,,,av_experiment,,10,80,2021-04-07_10h24.20.769,,,,ritter,,,,,,,interviewt,0,aron,,0,,,,Win32,,59.898173105695214,1080,,,,,23,,laut,Chrome,,images/ritter.png,,SESSION,,Der müde Ritter interviewt den lauten Touristen.,,av_experiment,arm,,,,,
﻿1,,1920,,,,,,,5,,4,2021-04-07_10h24.20.769,,3.1349650000338443,1,,0,,,tiger,2021.1.2,bunt,left,,,images/tiger.png,,,,,,,,,,,81,,5,,,,1,81,,,,choice_videos/4_024.mp4,,,,,,,test,,,,,av_experiment,,400,81,2021-04-07_10h24.20.769,,,,papagei,,,,,,,malt,0,aron,,0,,,,Win32,,59.898173105695214,1080,,,,,39,,wild,Chrome,,images/papagei.png,,SESSION,,Der bunte Papagei malt den wilden Tiger.,,av_experiment,böse,,,,,
﻿1,,1920,,,,,,,5,,1,2021-04-07_10h24.20.769,,0.3682799999951385,1,,0,,,postbote,2021.1.2,schwer,left,,,images/postbote.png,,,,,,,,,,,82,,5,,,,1,82,,,,choice_videos/1_075.mp4,,,,,,,test,,,,,av_experiment,,0,82,2021-04-07_10h24.20.769,,,,boxer,,,,,,,verfolgt,0,aron,,10,,,,Win32,,59.898173105695214,1080,,,,,131,,dick,Chrome,,images/boxer.png,,SESSION,,Den schweren Boxer verfolgt der dicke Postbote.,,av_experiment,faul,,,,,
﻿0,,1920,,,,,,,5,,4,2021-04-07_10h24.20.769,,0.2504600000102073,1,,0,,,panda,2021.1.2,müde,left,,,images/panda.png,,,,,,,,,,,83,,5,,,,0,83,,,,choice_videos/4_053.mp4,,,,,,,test,,,,,av_experiment,,400,83,2021-04-07_10h24.20.769,,,,drache,,,,,,,fesselt,0,aron,,0,,,,Win32,,59.898173105695214,1080,,,,,94,,groß,Chrome,,images/drache.png,,SESSION,,Den müden Drachen fesselt der große Panda.,,av_experiment,blind,,,,,
﻿0,,1920,,,,,,,5,,1,2021-04-07_10h24.20.769,,0.42969999997876585,1,,0,,,tourist,2021.1.2,fies,left,,,images/tourist.png,,,,,,,,,,,84,,5,,,,0,84,,,,choice_videos/1_005.mp4,,,,,,,test,,,,,av_experiment,,0,84,2021-04-07_10h24.20.769,,,,koch,,,,,,,ersticht,0,aron,,10,,,,Win32,,59.898173105695214,1080,,,,,2,,arm,Chrome,,images/koch.png,,SESSION,,Der fiese Koch ersticht den armen Touristen.,,av_experiment,dick,,,,,
﻿0,,1920,,,,,,,5,,3,2021-04-07_10h24.20.769,,0.49850500002503395,1,,0,,,soldat,2021.1.2,fies,left,,,images/soldat.png,,,,,,,,,,,85,,5,,,,0,85,,,,choice_videos/3_045.mp4,,,,,,,test,,,,,av_experiment,,10,85,2021-04-07_10h24.20.769,,,,pirat,,,,,,,erschießt,0,aron,,0,,,,Win32,,59.898173105695214,1080,,,,,78,,brav,Chrome,,images/pirat.png,,SESSION,,Den fiesen Piraten erschießt der brave Soldat.,,av_experiment,krank,,,,,
﻿1,,1920,,,,,,,5,,0,2021-04-07_10h24.20.769,,2.326615000027232,1,,0,,,tiger,2021.1.2,dick,right,,,images/tiger.png,,,,,,,,,,,86,,5,,,,0,86,,,,choice_videos/0_025.mp4,,,,,,,test,,,,,av_experiment,,0,86,2021-04-07_10h24.20.769,,,,bär,,,,,,,massiert,0,aron,,0,,,,Win32,,59.898173105695214,1080,,,,,40,,stolz,Chrome,,images/bär.png,,SESSION,,Der dicke Bär massiert den stolzen Tiger.,,av_experiment,blind,,,,,
﻿0,,1920,,,,,,,5,,0,2021-04-07_10h24.20.769,,2.626109999953769,1,,0,,,räuber,2021.1.2,streng,left,,,images/räuber.png,,,,,,,,,,,87,,5,,,,0,87,,,,choice_videos/0_056.mp4,,,,,,,test,,,,,av_experiment,,0,87,2021-04-07_10h24.20.769,,,,zauberer,,,,,,,jagt,0,aron,,0,,,,Win32,,59.898173105695214,1080,,,,,100,,böse,Chrome,,images/zauberer.png,,SESSION,,Den strengen Zauberer jagt der böse Räuber.,,av_experiment,frech,,,,,
﻿0,,1920,,,,,,,5,,4,2021-04-07_10h24.20.769,,0.9210900000180118,1,,0,,,kasper,2021.1.2,stolz,right,,,images/kasper.png,,,,,,,,,,,88,,5,,,,1,88,,,,choice_videos/4_067.mp4,,,,,,,test,,,,,av_experiment,,400,88,2021-04-07_10h24.20.769,,,,clown,,,,,,,tadelt,0,aron,,0,,,,Win32,,59.898173105695214,1080,,,,,119,,frech,Chrome,,images/clown.png,,SESSION,,Den stolzen Clown tadelt der freche Kasper.,,av_experiment,nett,,,,,
﻿0,,1920,,,,,,,5,,1,2021-04-07_10h24.20.769,,0.037810000008903444,1,,0,,,esel,2021.1.2,alt,right,,,images/esel.png,,,,,,,,,,,89,,5,,,,1,89,,,,choice_videos/1_062.mp4,,,,,,,test,,,,,av_experiment,,0,89,2021-04-07_10h24.20.769,,,,löwe,,,,,,,malt,0,aron,,10,,,,Win32,,59.898173105695214,1080,,,,,111,,stur,Chrome,,images/löwe.png,,SESSION,,Den alten Löwen malt der sture Esel.,,av_experiment,nett,,,,,
﻿1,,1920,,,,,,,5,,4,2021-04-07_10h24.20.769,,0.008514999994076788,1,,0,,,kobold,2021.1.2,böse,up,,,images/kobold.png,,,,,,,,,,,90,,5,,,,2,90,,,,choice_videos/4_032.mp4,,,,,,,test,,,,,av_experiment,,400,90,2021-04-07_10h24.20.769,,,,zauberer,,,,,,,tadelt,0,aron,,0,,,,Win32,,59.898173105695214,1080,,,,,149,,frech,Chrome,,images/zauberer.png,,SESSION,,Der böse Zauberer tadelt den frechen Kobold.,,av_experiment,müde,,,,,
﻿1,,1920,,,,,,,5,,3,2021-04-07_10h24.20.769,,1.9142099999589846,1,,0,,,maulwurf,2021.1.2,dick,left,,,images/maulwurf.png,,,,,,,,,,,91,,5,,,,1,91,,,,choice_videos/3_058.mp4,,,,,,,test,,,,,av_experiment,,10,91,2021-04-07_10h24.20.769,,,,koala,,,,,,,jagt,0,aron,,0,,,,Win32,,59.898173105695214,1080,,,,,103,,klein,Chrome,,images/koala.png,,SESSION,,Den dicken Koala jagt der kleine Maulwurf.,,av_experiment,blind,,,,,
﻿0,,1920,,,,,,,5,,2,2021-04-07_10h24.20.769,,1.3636749999714084,1,,0,,,pilot,2021.1.2,dünn,right,,,images/pilot.png,,,,,,,,,,,92,,5,,,,1,92,,,,choice_videos/2_073.mp4,,,,,,,test,,,,,av_experiment,,0,92,2021-04-07_10h24.20.769,,,,arzt,,,,,,,umarmt,0,aron,,400,,,,Win32,,59.898173105695214,1080,,,,,127,,treu,Chrome,,images/arzt.png,,SESSION,,Den dünnen Arzt umarmt der treue Pilot.,,av_experiment,nass,,,,,
﻿1,,1920,,,,,,,5,,3,2021-04-07_10h24.20.769,,0.4658350000390783,1,,0,,,ritter,2021.1.2,böse,left,,,images/ritter.png,,,,,,,,,,,93,,5,,,,1,93,,,,choice_videos/3_031.mp4,,,,,,,test,,,,,av_experiment,,10,93,2021-04-07_10h24.20.769,,,,wikinger,,,,,,,streichelt,0,aron,,0,,,,Win32,,59.898173105695214,1080,,,,,53,,dick,Chrome,,images/wikinger.png,,SESSION,,Der böse Wikinger streichelt den dicken Ritter.,,av_experiment,brav,,,,,
﻿1,,1920,,,,,,,5,,2,2021-04-07_10h24.20.769,,0.5385949999908917,1,,0,,,koala,2021.1.2,dick,right,,,images/koala.png,,,,,,,,,,,94,,5,,,,0,94,,,,choice_videos/2_021.mp4,,,,,,,test,,,,,av_experiment,,0,94,2021-04-07_10h24.20.769,,,,panda,,,,,,,malt,0,aron,,400,,,,Win32,,59.898173105695214,1080,,,,,32,,klein,Chrome,,images/panda.png,,SESSION,,Der dicke Panda malt den kleinen Koala.,,av_experiment,böse,,,,,
﻿1,,1920,,,,,,,5,,1,2021-04-07_10h24.20.769,,0.31693500000983477,1,,0,,,pinguin,2021.1.2,nass,left,,,images/pinguin.png,,,,,,,,,,,95,,5,,,,1,95,,,,choice_videos/1_069.mp4,,,,,,,test,,,,,av_experiment,,0,95,2021-04-07_10h24.20.769,,,,frosch,,,,,,,tritt,0,aron,,10,,,,Win32,,59.898173105695214,1080,,,,,121,,arm,Chrome,,images/frosch.png,,SESSION,,Den nassen Frosch tritt der arme Pinguin.,,av_experiment,dick,,,,,
﻿1,,1920,,,,,,,5,,4,2021-04-07_10h24.20.769,,0.23460000002523884,1,,0,,0.968460000003688,roboter,2021.1.2,groß,right,,,images/roboter.png,,,return,,,,,,,,96,,5,,,,0,96,,,,choice_videos/4_038.mp4,,,,,,,test,,,,,av_experiment,,400,96,2021-04-07_10h24.20.769,,,,bär,,,,,,,weckt,0,aron,,0,,,,Win32,,59.898173105695214,1080,,,,,64,,still,Chrome,,images/bär.png,,SESSION,,Der große Bär weckt den stillen Roboter.,,av_experiment,dick,,,,,
﻿1,,1920,,,,,,,5,,2,2021-04-07_10h24.20.769,,0.35065499995835125,1,,0,,,tourist,2021.1.2,fies,left,,,images/tourist.png,,,,,,,,,,,97,,5,,,,1,97,,,,choice_videos/2_005.mp4,,,,,,,test,,,,,av_experiment,,0,97,2021-04-07_10h24.20.769,,,,koch,,,,,,,ersticht,0,aron,,400,,,,Win32,,59.898173105695214,1080,,,,,7,,arm,Chrome,,images/koch.png,,SESSION,,Der fiese Koch ersticht den armen Touristen.,,av_experiment,alt,,,,,
﻿1,,1920,,,,,,,5,,0,2021-04-07_10h24.20.769,,2.556349999969825,1,,0,,,zauberer,2021.1.2,blind,right,,,images/zauberer.png,,,,,,,,,,,98,,5,,,,0,98,,,,choice_videos/0_051.mp4,,,,,,,test,,,,,av_experiment,,0,98,2021-04-07_10h24.20.769,,,,kasper,,,,,,,fesselt,0,aron,,0,,,,Win32,,59.898173105695214,1080,,,,,90,,groß,Chrome,,images/kasper.png,,SESSION,,Den blinden Kasper fesselt der große Zauberer.,,av_experiment,fies,,,,,
﻿1,,1920,,,,,,,5,,0,2021-04-07_10h24.20.769,,2.4191049999790266,1,,0,,,löwe,2021.1.2,stur,left,,,images/löwe.png,,,,,,,,,,,99,,5,,,,1,99,,,,choice_videos/0_022.mp4,,,,,,,test,,,,,av_experiment,,0,99,2021-04-07_10h24.20.769,,,,esel,,,,,,,malt,0,aron,,0,,,,Win32,,59.898173105695214,1080,,,,,35,,alt,Chrome,,images/esel.png,,SESSION,,Der sture Esel malt den alten Löwen.,,av_experiment,arm,,,,,
﻿1,,1920,,,,,,,5,,3,2021-04-07_10h24.20.769,,1.948804999992717,1,,0,,,prinz,2021.1.2,böse,left,,,images/prinz.png,,,,,,,,,,,100,,5,,,,1,100,,,,choice_videos/3_052.mp4,,,,,,,test,,,,,av_experiment,,10,100,2021-04-07_10h24.20.769,,,,pirat,,,,,,,fesselt,0,aron,,0,,,,Win32,,59.898173105695214,1080,,,,,93,,jung,Chrome,,images/pirat.png,,SESSION,,Den bösen Piraten fesselt der junge Prinz.,,av_experiment,alt,,,,,
﻿1,,1920,,,,,,,5,,4,2021-04-07_10h24.20.769,,1.8422849999624304,1,,0,,,postbote,2021.1.2,böse,left,,,images/postbote.png,,,,,,,,,,,101,,5,,,,1,101,,,,choice_videos/4_006.mp4,,,,,,,test,,,,,av_experiment,,400,101,2021-04-07_10h24.20.769,,,,gärtner,,,,,,,erwürgt,0,aron,,0,,,,Win32,,59.898173105695214,1080,,,,,9,,dreist,Chrome,,images/gärtner.png,,SESSION,,Der böse Gärtner erwürgt den dreisten Postboten.,,av_experiment,faul,,,,,
﻿1,,1920,,,,,,,5,,2,2021-04-07_10h24.20.769,,0.07743499998468906,1,,0,,,prinz,2021.1.2,böse,right,,,images/prinz.png,,,,,,,,,,,102,,5,,,,0,102,,,,choice_videos/2_052.mp4,,,,,,,test,,,,,av_experiment,,0,102,2021-04-07_10h24.20.769,,,,pirat,,,,,,,fesselt,0,aron,,400,,,,Win32,,59.898173105695214,1080,,,,,92,,jung,Chrome,,images/pirat.png,,SESSION,,Den bösen Piraten fesselt der junge Prinz.,,av_experiment,müde,,,,,
﻿1,,1920,,,,,,,5,,1,2021-04-07_10h24.20.769,,0.24362999998265877,1,,0,,,vater,2021.1.2,schlau,up,,,images/vater.png,,,,,,,,,,,103,,5,,,,2,103,,,,choice_videos/1_001.mp4,,,,,,,test,,,,,av_experiment,,0,103,2021-04-07_10h24.20.769,,,,kasper,,,,,,,beschattet,0,aron,,10,,,,Win32,,59.898173105695214,1080,,,,,140,,faul,Chrome,,images/kasper.png,,SESSION,,Der schlaue Kasper beschattet den faulen Vater.,,av_experiment,grau,,,,,
﻿1,,1920,,,,,,,5,,4,2021-04-07_10h24.20.769,,0.36038500000722706,1,,0,,,soldat,2021.1.2,nett,right,,,images/soldat.png,,,,,,,,,,,104,,5,,,,0,104,,,,choice_videos/4_059.mp4,,,,,,,test,,,,,av_experiment,,400,104,2021-04-07_10h24.20.769,,,,papst,,,,,,,küsst,0,aron,,0,,,,Win32,,59.898173105695214,1080,,,,,104,,gut,Chrome,,images/papst.png,,SESSION,,Den netten Papst küsst der gute Soldat.,,av_experiment,bunt,,,,,
﻿1,,1920,,,,,,,5,,0,2021-04-07_10h24.20.769,,1.3819950000033714,1,,0,,,esel,2021.1.2,klug,right,,,images/esel.png,,,,,,,,,,,105,,5,,,,0,105,,,,choice_videos/0_020.mp4,,,,,,,test,,,,,av_experiment,,0,105,2021-04-07_10h24.20.769,,,,pinguin,,,,,,,küsst,0,aron,,0,,,,Win32,,59.898173105695214,1080,,,,,30,,alt,Chrome,,images/pinguin.png,,SESSION,,Der kluge Pinguin küsst den alten Esel.,,av_experiment,böse,,,,,
﻿0,,1920,,,,,,,5,,1,2021-04-07_10h24.20.769,,1.0779449999681674,1,,0,,,esel,2021.1.2,klug,right,,,images/esel.png,,,,,,,,,,,106,,5,,,,1,106,,,,choice_videos/1_020.mp4,,,,,,,test,,,,,av_experiment,,0,106,2021-04-07_10h24.20.769,,,,pinguin,,,,,,,küsst,0,aron,,10,,,,Win32,,59.898173105695214,1080,,,,,31,,alt,Chrome,,images/pinguin.png,,SESSION,,Der kluge Pinguin küsst den alten Esel.,,av_experiment,fies,,,,,
﻿1,,1920,,,,,,,5,,3,2021-04-07_10h24.20.769,,0.2813099999912083,1,,0,,,cowboy,2021.1.2,frech,up,,,images/cowboy.png,,,,,,,,,,,107,,5,,,,2,107,,,,choice_videos/3_057.mp4,,,,,,,test,,,,,av_experiment,,10,107,2021-04-07_10h24.20.769,,,,kobold,,,,,,,jagt,0,aron,,0,,,,Win32,,59.898173105695214,1080,,,,,153,,rüde,Chrome,,images/kobold.png,,SESSION,,Den frechen Kobold jagt der rüde Cowboy.,,av_experiment,schlau,,,,,
﻿1,,1920,,,,,,,5,,0,2021-04-07_10h24.20.769,,0.49892499996349216,1,,0,,,esel,2021.1.2,alt,right,,,images/esel.png,,,,,,,,,,,108,,5,,,,0,108,,,,choice_videos/0_062.mp4,,,,,,,test,,,,,av_experiment,,0,108,2021-04-07_10h24.20.769,,,,löwe,,,,,,,malt,0,aron,,0,,,,Win32,,59.898173105695214,1080,,,,,110,,stur,Chrome,,images/löwe.png,,SESSION,,Den alten Löwen malt der sture Esel.,,av_experiment,faul,,,,,
﻿1,,1920,,,,,,,5,,2,2021-04-07_10h24.20.769,,3.6720850000274368,1,,0,,,vater,2021.1.2,schlau,up,,,images/vater.png,,,,,,,,,,,109,,5,,,,2,109,,,,choice_videos/2_001.mp4,,,,,,,test,,,,,av_experiment,,0,109,2021-04-07_10h24.20.769,,,,kasper,,,,,,,beschattet,0,aron,,400,,,,Win32,,59.898173105695214,1080,,,,,142,,faul,Chrome,,images/kasper.png,,SESSION,,Der schlaue Kasper beschattet den faulen Vater.,,av_experiment,blind,,,,,
﻿1,,1920,,,,,,,5,,3,2021-04-07_10h24.20.769,,0.31832000002032146,1,,0,,,pilot,2021.1.2,alt,right,,,images/pilot.png,,,,,,,,,,,110,,5,,,,0,110,,,,choice_videos/3_055.mp4,,,,,,,test,,,,,av_experiment,,10,110,2021-04-07_10h24.20.769,,,,pfarrer,,,,,,,grüßt,0,aron,,0,,,,Win32,,59.898173105695214,1080,,,,,98,,klug,Chrome,,images/pfarrer.png,,SESSION,,Den alten Pfarrer grüßt der kluge Pilot.,,av_experiment,nett,,,,,
﻿0,,1920,,,,,,,5,,4,2021-04-07_10h24.20.769,,0.4131899999920279,1,,0,,,wikinger,2021.1.2,stark,up,,,images/wikinger.png,,,,,,,,,,,111,,5,,,,1,111,,,,choice_videos/4_029.mp4,,,,,,,test,,,,,av_experiment,,400,111,2021-04-07_10h24.20.769,,,,koch,,,,,,,schubst,0,aron,,0,,,,Win32,,59.898173105695214,1080,,,,,49,,blind,Chrome,,images/koch.png,,SESSION,,Der starke Koch schubst den blinden Wikinger.,,av_experiment,gut,,,,,
﻿1,,1920,,,,,,,5,,1,2021-04-07_10h24.20.769,,0.7691249999916181,1,,0,,0.8584250000421889,pilot,2021.1.2,alt,up,,,images/pilot.png,,,return,,,,,,,,112,,5,,,,2,112,,,,choice_videos/1_055.mp4,,,,,,,test,,,,,av_experiment,,0,112,2021-04-07_10h24.20.769,,,,pfarrer,,,,,,,grüßt,0,aron,,10,,,,Win32,,59.898173105695214,1080,,,,,151,,klug,Chrome,,images/pfarrer.png,,SESSION,,Den alten Pfarrer grüßt der kluge Pilot.,,av_experiment,böse,,,,,
﻿1,,1920,,,,,,,5,,0,2021-04-07_10h24.20.769,,0.20097499998519197,1,,0,,,lehrer,2021.1.2,arm,left,,,images/lehrer.png,,,,,,,,,,,113,,5,,,,1,113,,,,choice_videos/0_071.mp4,,,,,,,test,,,,,av_experiment,,0,113,2021-04-07_10h24.20.769,,,,junge,,,,,,,tröstet,0,aron,,0,,,,Win32,,59.898173105695214,1080,,,,,125,,nett,Chrome,,images/junge.png,,SESSION,,Den armen Jungen tröstet der nette Lehrer.,,av_experiment,alt,,,,,
﻿0,,1920,,,,,,,5,,2,2021-04-07_10h24.20.769,,0.7169700000085868,1,,0,,,cowboy,2021.1.2,gut,up,,,images/cowboy.png,,,,,,,,,,,114,,5,,,,0,114,,,,choice_videos/2_008.mp4,,,,,,,test,,,,,av_experiment,,0,114,2021-04-07_10h24.20.769,,,,soldat,,,,,,,fängt,0,aron,,400,,,,Win32,,59.898173105695214,1080,,,,,12,,müde,Chrome,,images/soldat.png,,SESSION,,Der gute Soldat fängt den frechen Cowboy.,,av_experiment,müde,,,,,
﻿1,,1920,,,,,,,5,,3,2021-04-07_10h24.20.769,,2.172135000000708,1,,0,,,gärtner,2021.1.2,nett,left,,,images/gärtner.png,,,,,,,,,,,115,,5,,,,1,115,,,,choice_videos/3_026.mp4,,,,,,,test,,,,,av_experiment,,10,115,2021-04-07_10h24.20.769,,,,maler,,,,,,,massiert,0,aron,,0,,,,Win32,,59.898173105695214,1080,,,,,43,,still,Chrome,,images/maler.png,,SESSION,,Der nette Maler massiert den stillen Gärtner.,,av_experiment,böse,,,,,
﻿0,,1920,,,,,,,5,,2,2021-04-07_10h24.20.769,,1.7566050000023097,1,,0,,,tourist,2021.1.2,müde,left,,,images/tourist.png,,,,,,,,,,,116,,5,,,,0,116,,,,choice_videos/2_014.mp4,,,,,,,test,,,,,av_experiment,,0,116,2021-04-07_10h24.20.769,,,,ritter,,,,,,,interviewt,0,aron,,400,,,,Win32,,59.898173105695214,1080,,,,,22,,laut,Chrome,,images/ritter.png,,SESSION,,Der müde Ritter interviewt den lauten Touristen.,,av_experiment,still,,,,,
﻿1,,1920,,,,,,,5,,4,2021-04-07_10h24.20.769,,2.8600449999794364,1,,0,,,pinguin,2021.1.2,dick,right,,,images/pinguin.png,,,,,,,,,,,117,,5,,,,0,117,,,,choice_videos/4_015.mp4,,,,,,,test,,,,,av_experiment,,400,117,2021-04-07_10h24.20.769,,,,bär,,,,,,,interviewt,0,aron,,0,,,,Win32,,59.898173105695214,1080,,,,,24,,klein,Chrome,,images/bär.png,,SESSION,,Der dicke Bär interviewt den kleinen Pinguin.,,av_experiment,alt,,,,,
﻿0,,1920,,,,,,,5,,0,2021-04-07_10h24.20.769,,1.7521399999968708,1,,0,,,frosch,2021.1.2,grau,left,,,images/frosch.png,,,,,,,,,,,118,,5,,,,0,118,,,,choice_videos/0_041.mp4,,,,,,,test,,,,,av_experiment,,0,118,2021-04-07_10h24.20.769,,,,elefant,,,,,,,berührt,0,aron,,0,,,,Win32,,59.898173105695214,1080,,,,,70,,grün,Chrome,,images/elefant.png,,SESSION,,Den grauen Elefanten berührt der grüne Frosch.,,av_experiment,brav,,,,,
﻿1,,1920,,,,,,,5,,3,2021-04-07_10h24.20.769,,0.5261099999770522,1,,0,,,postbote,2021.1.2,böse,right,,,images/postbote.png,,,,,,,,,,,119,,5,,,,0,119,,,,choice_videos/3_006.mp4,,,,,,,test,,,,,av_experiment,,10,119,2021-04-07_10h24.20.769,,,,gärtner,,,,,,,erwürgt,0,aron,,0,,,,Win32,,59.898173105695214,1080,,,,,8,,dreist,Chrome,,images/gärtner.png,,SESSION,,Der böse Gärtner erwürgt den dreisten Postboten.,,av_experiment,arm,,,,,
﻿0,,1920,,,,,,,5,,4,2021-04-07_10h24.20.769,,0.2355049999896437,1,,0,,,soldat,2021.1.2,blind,left,,,images/soldat.png,,,,,,,,,,,120,,5,,,,0,120,,,,choice_videos/4_043.mp4,,,,,,,test,,,,,av_experiment,,400,120,2021-04-07_10h24.20.769,,,,jäger,,,,,,,erschießt,0,aron,,0,,,,Win32,,59.898173105695214,1080,,,,,74,,brav,Chrome,,images/jäger.png,,SESSION,,Den blinden Jäger erschießt der brave Soldat.,,av_experiment,gut,,,,,
﻿1,,1920,,,,,,,5,,2,2021-04-07_10h24.20.769,,0.0006099999882280827,1,,0,,,papagei,2021.1.2,wild,right,,,images/papagei.png,,,,,,,,,,,121,,5,,,,0,121,,,,choice_videos/2_063.mp4,,,,,,,test,,,,,av_experiment,,0,121,2021-04-07_10h24.20.769,,,,tiger,,,,,,,malt,0,aron,,400,,,,Win32,,59.898173105695214,1080,,,,,112,,bunt,Chrome,,images/tiger.png,,SESSION,,Den wilden Tiger malt der bunte Papagei.,,av_experiment,faul,,,,,
﻿1,,1920,,,,,,,5,,4,2021-04-07_10h24.20.769,,0.2855899999849498,1,,0,,,frosch,2021.1.2,arm,right,,,images/frosch.png,,,,,,,,,,,122,,5,,,,0,122,,,,choice_videos/4_033.mp4,,,,,,,test,,,,,av_experiment,,400,122,2021-04-07_10h24.20.769,,,,pinguin,,,,,,,tritt,0,aron,,0,,,,Win32,,59.898173105695214,1080,,,,,54,,nass,Chrome,,images/pinguin.png,,SESSION,,Der arme Pinguin tritt den nassen Frosch.,,av_experiment,brav,,,,,
﻿1,,1920,,,,,,,5,,0,2021-04-07_10h24.20.769,,1.031029999954626,1,,0,,,zauberer,2021.1.2,blind,left,,,images/zauberer.png,,,,,,,,,,,123,,5,,,,1,123,,,,choice_videos/0_009.mp4,,,,,,,test,,,,,av_experiment,,0,123,2021-04-07_10h24.20.769,,,,kasper,,,,,,,fesselt,0,aron,,0,,,,Win32,,59.898173105695214,1080,,,,,15,,groß,Chrome,,images/kasper.png,,SESSION,,Der blinde Kasper fesselt den großen Zauberer.,,av_experiment,gut,,,,,
﻿1,,1920,,,,,,,5,,4,2021-04-07_10h24.20.769,,0.5882799999671988,1,,0,,,bär,2021.1.2,still,right,,,images/bär.png,,,,,,,,,,,124,,5,,,,0,124,,,,choice_videos/4_077.mp4,,,,,,,test,,,,,av_experiment,,400,124,2021-04-07_10h24.20.769,,,,roboter,,,,,,,weckt,0,aron,,0,,,,Win32,,59.898173105695214,1080,,,,,134,,groß,Chrome,,images/roboter.png,,SESSION,,Den stillen Roboter weckt der große Bär.,,av_experiment,blind,,,,,
﻿1,,1920,,,,,,,5,,1,2021-04-07_10h24.20.769,,1.2870399999665096,1,,0,,,frosch,2021.1.2,grau,left,,,images/frosch.png,,,,,,,,,,,125,,5,,,,1,125,,,,choice_videos/1_041.mp4,,,,,,,test,,,,,av_experiment,,0,125,2021-04-07_10h24.20.769,,,,elefant,,,,,,,berührt,0,aron,,10,,,,Win32,,59.898173105695214,1080,,,,,71,,grün,Chrome,,images/elefant.png,,SESSION,,Den grauen Elefanten berührt der grüne Frosch.,,av_experiment,frech,,,,,
﻿0,,1920,,,,,,,5,,3,2021-04-07_10h24.20.769,,1.9407800000044517,1,,0,,,junge,2021.1.2,dick,left,,,images/junge.png,,,,,,,,,,,126,,5,,,,0,126,,,,choice_videos/3_074.mp4,,,,,,,test,,,,,av_experiment,,10,126,2021-04-07_10h24.20.769,,,,nikolaus,,,,,,,umarmt,0,aron,,0,,,,Win32,,59.898173105695214,1080,,,,,128,,klein,Chrome,,images/nikolaus.png,,SESSION,,Den dicken Nikolaus umarmt der kleine Junge.,,av_experiment,gut,,,,,
﻿1,,1920,,,,,,,5,,1,2021-04-07_10h24.20.769,,1.421295000007376,1,,0,,,tiger,2021.1.2,wach,right,,,images/tiger.png,,,,,,,,,,,127,,5,,,,0,127,,,,choice_videos/1_034.mp4,,,,,,,test,,,,,av_experiment,,0,127,2021-04-07_10h24.20.769,,,,löwe,,,,,,,tritt,0,aron,,10,,,,Win32,,59.898173105695214,1080,,,,,56,,müde,Chrome,,images/löwe.png,,SESSION,,Der wache Löwe tritt den müden Tiger.,,av_experiment,alt,,,,,
﻿0,,1920,,,,,,,5,,2,2021-04-07_10h24.20.769,,1.5356100000208244,1,,0,,1.2576899999985471,metzger,2021.1.2,gut,left,,,images/metzger.png,,,return,,,,,,,,128,,5,,,,0,128,,,,choice_videos/2_042.mp4,,,,,,,test,,,,,av_experiment,,0,128,2021-04-07_10h24.20.769,,,,lehrer,,,,,,,beschattet,0,aron,,400,,,,Win32,,59.898173105695214,1080,,,,,72,,alt,Chrome,,images/lehrer.png,,SESSION,,Den guten Lehrer beschattet der alte Metzger.,,av_experiment,fies,,,,,
﻿0,,1920,,,,,,,5,,1,2021-04-07_10h24.20.769,,1.5973800000501797,1,,0,,,zauberer,2021.1.2,blind,right,,,images/zauberer.png,,,,,,,,,,,129,,5,,,,1,129,,,,choice_videos/1_051.mp4,,,,,,,test,,,,,av_experiment,,0,129,2021-04-07_10h24.20.769,,,,kasper,,,,,,,fesselt,0,aron,,10,,,,Win32,,59.898173105695214,1080,,,,,91,,groß,Chrome,,images/kasper.png,,SESSION,,Den blinden Kasper fesselt der große Zauberer.,,av_experiment,blind,,,,,
﻿0,,1920,,,,,,,5,,2,2021-04-07_10h24.20.769,,0.4489150000154041,1,,0,,,panda,2021.1.2,müde,right,,,images/panda.png,,,,,,,,,,,130,,5,,,,1,130,,,,choice_videos/2_010.mp4,,,,,,,test,,,,,av_experiment,,0,130,2021-04-07_10h24.20.769,,,,drache,,,,,,,fesselt,0,aron,,400,,,,Win32,,59.898173105695214,1080,,,,,17,,groß,Chrome,,images/drache.png,,SESSION,,Der müde Drache fesselt den großen Panda.,,av_experiment,gut,,,,,
﻿1,,1920,,,,,,,5,,1,2021-04-07_10h24.20.769,,0.2033750000409782,1,,0,,,koch,2021.1.2,schwarz,right,,,images/koch.png,,,,,,,,,,,131,,5,,,,0,131,,,,choice_videos/1_049.mp4,,,,,,,test,,,,,av_experiment,,0,131,2021-04-07_10h24.20.769,,,,zauberer,,,,,,,erwürgt,0,aron,,10,,,,Win32,,59.898173105695214,1080,,,,,86,,stur,Chrome,,images/zauberer.png,,SESSION,,Den schwarzen Zauberer erwürgt der sture Koch.,,av_experiment,schön,,,,,
﻿1,,1920,,,,,,,5,,3,2021-04-07_10h24.20.769,,1.6199650000198744,1,,0,,,panda,2021.1.2,klein,right,,,images/panda.png,,,,,,,,,,,132,,5,,,,0,132,,,,choice_videos/3_061.mp4,,,,,,,test,,,,,av_experiment,,10,132,2021-04-07_10h24.20.769,,,,koala,,,,,,,malt,0,aron,,0,,,,Win32,,59.898173105695214,1080,,,,,108,,dick,Chrome,,images/koala.png,,SESSION,,Den kleinen Koala malt der dicke Panda.,,av_experiment,dünn,,,,,
﻿0,,1920,,,,,,,5,,1,2021-04-07_10h24.20.769,,0.4763900000252761,1,,0,,,tourist,2021.1.2,flink,right,,,images/tourist.png,,,,,,,,,,,133,,5,,,,1,133,,,,choice_videos/1_036.mp4,,,,,,,test,,,,,av_experiment,,0,133,2021-04-07_10h24.20.769,,,,maler,,,,,,,verfolgt,0,aron,,10,,,,Win32,,59.898173105695214,1080,,,,,61,,blass,Chrome,,images/maler.png,,SESSION,,Der flinke Maler verfolgt den blassen Touristen.,,av_experiment,dick,,,,,
﻿0,,1920,,,,,,,5,,0,2021-04-07_10h24.20.769,,0.3911000000080094,1,,0,,,bär,2021.1.2,still,right,,,images/bär.png,,,,,,,,,,,134,,5,,,,1,134,,,,choice_videos/0_077.mp4,,,,,,,test,,,,,av_experiment,,0,134,2021-04-07_10h24.20.769,,,,roboter,,,,,,,weckt,0,aron,,0,,,,Win32,,59.898173105695214,1080,,,,,135,,groß,Chrome,,images/roboter.png,,SESSION,,Den stillen Roboter weckt der große Bär.,,av_experiment,schwer,,,,,
﻿0,,1920,,,,,,,5,,2,2021-04-07_10h24.20.769,,0.07231000001775101,1,,0,,,drache,2021.1.2,groß,right,,,images/drache.png,,,,,,,,,,,135,,5,,,,1,135,,,,choice_videos/2_023.mp4,,,,,,,test,,,,,av_experiment,,0,135,2021-04-07_10h24.20.769,,,,büffel,,,,,,,malt,0,aron,,400,,,,Win32,,59.898173105695214,1080,,,,,37,,gut,Chrome,,images/büffel.png,,SESSION,,Der große Büffel malt den guten Drachen.,,av_experiment,müde,,,,,
﻿1,,1920,,,,,,,5,,1,2021-04-07_10h24.20.769,,0.391025000018999,1,,0,,,polizist,2021.1.2,frech,right,,,images/polizist.png,,,,,,,,,,,136,,5,,,,0,136,,,,choice_videos/1_028.mp4,,,,,,,test,,,,,av_experiment,,0,136,2021-04-07_10h24.20.769,,,,punker,,,,,,,schlägt,0,aron,,10,,,,Win32,,59.898173105695214,1080,,,,,46,,schwach,Chrome,,images/punker.png,,SESSION,,Der freche Punker schlägt den schwachen Polizisten.,,av_experiment,gut,,,,,
﻿1,,1920,,,,,,,5,,2,2021-04-07_10h24.20.769,,0.18686000001616776,1,,0,,,vater,2021.1.2,süß,up,,,images/vater.png,,,,,,,,,,,137,,5,,,,2,137,,,,choice_videos/2_018.mp4,,,,,,,test,,,,,av_experiment,,0,137,2021-04-07_10h24.20.769,,,,junge,,,,,,,küsst,0,aron,,400,,,,Win32,,59.898173105695214,1080,,,,,147,,lieb,Chrome,,images/junge.png,,SESSION,,Der süße Junge küsst den lieben Vater.,,av_experiment,blind,,,,,
﻿0,,1920,,,,,,,5,,4,2021-04-07_10h24.20.769,,2.0650999999488704,1,,0,,,panda,2021.1.2,klein,right,,,images/panda.png,,,,,,,,,,,138,,5,,,,1,138,,,,choice_videos/4_061.mp4,,,,,,,test,,,,,av_experiment,,400,138,2021-04-07_10h24.20.769,,,,koala,,,,,,,malt,0,aron,,0,,,,Win32,,59.898173105695214,1080,,,,,109,,dick,Chrome,,images/koala.png,,SESSION,,Den kleinen Koala malt der dicke Panda.,,av_experiment,grau,,,,,
﻿1,,1920,,,,,,,5,,1,2021-04-07_10h24.20.769,,1.4671500000404194,1,,0,,,maulwurf,2021.1.2,krank,right,,,images/maulwurf.png,,,,,,,,,,,139,,5,,,,0,139,,,,choice_videos/1_060.mp4,,,,,,,test,,,,,av_experiment,,0,139,2021-04-07_10h24.20.769,,,,hase,,,,,,,küsst,0,aron,,10,,,,Win32,,59.898173105695214,1080,,,,,106,,scheu,Chrome,,images/hase.png,,SESSION,,Den kranken Hasen küsst der scheue Maulwurf.,,av_experiment,gut,,,,,
﻿1,,1920,,,,,,,5,,4,2021-04-07_10h24.20.769,,1.4161050000111572,1,,0,,,cowboy,2021.1.2,gut,left,,,images/cowboy.png,,,,,,,,,,,140,,5,,,,1,140,,,,choice_videos/4_050.mp4,,,,,,,test,,,,,av_experiment,,400,140,2021-04-07_10h24.20.769,,,,soldat,,,,,,,fängt,0,aron,,0,,,,Win32,,59.898173105695214,1080,,,,,89,,frech,Chrome,,images/soldat.png,,SESSION,,Den guten Soldaten fängt der freche Cowboy.,,av_experiment,groß,,,,,
﻿1,,1920,,,,,,,5,,0,2021-04-07_10h24.20.769,,2.2158849999541417,1,,0,,,pinguin,2021.1.2,nass,right,,,images/pinguin.png,,,,,,,,,,,141,,5,,,,0,141,,,,choice_videos/0_069.mp4,,,,,,,test,,,,,av_experiment,,0,141,2021-04-07_10h24.20.769,,,,frosch,,,,,,,tritt,0,aron,,0,,,,Win32,,59.898173105695214,1080,,,,,120,,arm,Chrome,,images/frosch.png,,SESSION,,Den nassen Frosch tritt der arme Pinguin.,,av_experiment,böse,,,,,
﻿0,,1920,,,,,,,5,,2,2021-04-07_10h24.20.769,,0.5420600000070408,1,,0,,,polizist,2021.1.2,böse,right,,,images/polizist.png,,,,,,,,,,,142,,5,,,,1,142,,,,choice_videos/2_044.mp4,,,,,,,test,,,,,av_experiment,,0,142,2021-04-07_10h24.20.769,,,,jäger,,,,,,,erschießt,0,aron,,400,,,,Win32,,59.898173105695214,1080,,,,,77,,brav,Chrome,,images/jäger.png,,SESSION,,Den bösen Jäger erschießt der brave Polizist.,,av_experiment,stolz,,,,,
﻿0,,1920,,,,,,,5,,4,2021-04-07_10h24.20.769,,1.9635049999924377,1,,0,,,soldat,2021.1.2,böse,left,,,images/soldat.png,,,,,,,,,,,143,,5,,,,0,143,,,,choice_videos/4_027.mp4,,,,,,,test,,,,,av_experiment,,400,143,2021-04-07_10h24.20.769,,,,räuber,,,,,,,schlägt,0,aron,,0,,,,Win32,,59.898173105695214,1080,,,,,44,,brav,Chrome,,images/räuber.png,,SESSION,,Der böse Räuber schlägt den braven Soldaten.,,av_experiment,dick,,,,,
﻿0,,1920,,,,,,,5,,1,2021-04-07_10h24.20.769,,0.5374000000301749,1,,0,,1.058324999990873,mann,2021.1.2,dick,right,,,images/mann.png,,,return,,,,,,,,144,,5,,,,1,144,,,,choice_videos/1_030.mp4,,,,,,,test,,,,,av_experiment,,0,144,2021-04-07_10h24.20.769,,,,nikolaus,,,,,,,streichelt,0,aron,,10,,,,Win32,,59.898173105695214,1080,,,,,51,,alt,Chrome,,images/nikolaus.png,,SESSION,,Der dicke Nikolaus streichelt den alten Mann.,,av_experiment,gut,,,,,
﻿1,,1920,,,,,,,5,,3,2021-04-07_10h24.20.769,,0.680385000014212,1,,0,,,riese,2021.1.2,flink,up,,,images/riese.png,,,,,,,,,,,145,,5,,,,2,145,,,,choice_videos/3_011.mp4,,,,,,,test,,,,,av_experiment,,10,145,2021-04-07_10h24.20.769,,,,zwerg,,,,,,,fesselt,0,aron,,0,,,,Win32,,59.898173105695214,1080,,,,,143,,träge,Chrome,,images/zwerg.png,,SESSION,,Der flinke Zwerg fesselt den trägen Riesen.,,av_experiment,taub,,,,,
﻿1,,1920,,,,,,,5,,2,2021-04-07_10h24.20.769,,1.6304100000415929,1,,0,,,tiger,2021.1.2,wach,left,,,images/tiger.png,,,,,,,,,,,146,,5,,,,1,146,,,,choice_videos/2_034.mp4,,,,,,,test,,,,,av_experiment,,0,146,2021-04-07_10h24.20.769,,,,löwe,,,,,,,tritt,0,aron,,400,,,,Win32,,59.898173105695214,1080,,,,,57,,müde,Chrome,,images/löwe.png,,SESSION,,Der wache Löwe tritt den müden Tiger.,,av_experiment,nett,,,,,
﻿1,,1920,,,,,,,5,,1,2021-04-07_10h24.20.769,,2.7539850000175647,1,,0,,,pilot,2021.1.2,dünn,right,,,images/pilot.png,,,,,,,,,,,147,,5,,,,0,147,,,,choice_videos/1_073.mp4,,,,,,,test,,,,,av_experiment,,0,147,2021-04-07_10h24.20.769,,,,arzt,,,,,,,umarmt,0,aron,,10,,,,Win32,,59.898173105695214,1080,,,,,126,,treu,Chrome,,images/arzt.png,,SESSION,,Den dünnen Arzt umarmt der treue Pilot.,,av_experiment,flink,,,,,
﻿0,,1920,,,,,,,5,,0,2021-04-07_10h24.20.769,,2.6800599999842234,1,,0,,,pinguin,2021.1.2,dick,right,,,images/pinguin.png,,,,,,,,,,,148,,5,,,,1,148,,,,choice_videos/0_015.mp4,,,,,,,test,,,,,av_experiment,,0,148,2021-04-07_10h24.20.769,,,,bär,,,,,,,interviewt,0,aron,,0,,,,Win32,,59.898173105695214,1080,,,,,25,,klein,Chrome,,images/bär.png,,SESSION,,Der dicke Bär interviewt den kleinen Pinguin.,,av_experiment,groß,,,,,
﻿1,,1920,,,,,,,5,,3,2021-04-07_10h24.20.769,,3.1291899999487214,1,,0,,,kapitän,2021.1.2,arm,right,,,images/kapitän.png,,,,,,,,,,,149,,5,,,,0,149,,,,choice_videos/3_079.mp4,,,,,,,test,,,,,av_experiment,,10,149,2021-04-07_10h24.20.769,,,,matrose,,,,,,,weckt,0,aron,,0,,,,Win32,,59.898173105695214,1080,,,,,138,,groß,Chrome,,images/matrose.png,,SESSION,,Den armen Matrosen weckt der große Kapitän.,,av_experiment,blind,,,,,
﻿1,,1920,,,,,,,5,,1,2021-04-07_10h24.20.769,,0.29982499999459833,1,,0,,,bauer,2021.1.2,stark,up,,,images/bauer.png,,,,,,,,,,,150,,5,,,,2,150,,,,choice_videos/1_065.mp4,,,,,,,test,,,,,av_experiment,,0,150,2021-04-07_10h24.20.769,,,,tourist,,,,,,,schubst,0,aron,,10,,,,Win32,,59.898173105695214,1080,,,,,156,,lahm,Chrome,,images/tourist.png,,SESSION,,Den starken Touristen schubst der lahme Bauer.,,av_experiment,böse,,,,,
﻿1,,1920,,,,,,,5,,0,2021-04-07_10h24.20.769,,0.8604499999783002,1,,0,,,kobold,2021.1.2,böse,up,,,images/kobold.png,,,,,,,,,,,151,,5,,,,2,151,,,,choice_videos/0_032.mp4,,,,,,,test,,,,,av_experiment,,0,151,2021-04-07_10h24.20.769,,,,zauberer,,,,,,,tadelt,0,aron,,0,,,,Win32,,59.898173105695214,1080,,,,,150,,frech,Chrome,,images/zauberer.png,,SESSION,,Der böse Zauberer tadelt den frechen Kobold.,,av_experiment,schlau,,,,,
﻿0,,1920,,,,,,,5,,2,2021-04-07_10h24.20.769,,0.5072999999974854,1,,0,,,maler,2021.1.2,brav,right,,,images/maler.png,,,,,,,,,,,152,,5,,,,1,152,,,,choice_videos/2_078.mp4,,,,,,,test,,,,,av_experiment,,0,152,2021-04-07_10h24.20.769,,,,kasper,,,,,,,weckt,0,aron,,400,,,,Win32,,59.898173105695214,1080,,,,,137,,blind,Chrome,,images/kasper.png,,SESSION,,Den braven Kasper weckt der blinde Maler.,,av_experiment,klein,,,,,
﻿0,,1920,,,,,,,5,,0,2021-04-07_10h24.20.769,,1.757210000010673,1,,0,,,koch,2021.1.2,faul,right,,,images/koch.png,,,,,,,,,,,153,,5,,,,1,153,,,,choice_videos/0_004.mp4,,,,,,,test,,,,,av_experiment,,0,153,2021-04-07_10h24.20.769,,,,bäcker,,,,,,,ersticht,0,aron,,0,,,,Win32,,59.898173105695214,1080,,,,,6,,böse,Chrome,,images/bäcker.png,,SESSION,,Der faule Bäcker ersticht den bösen Koch.,,av_experiment,fies,,,,,
﻿1,,1920,,,,,,,5,,3,2021-04-07_10h24.20.769,,0.6422049999819137,1,,0,,,cowboy,2021.1.2,gut,right,,,images/cowboy.png,,,,,,,,,,,154,,5,,,,0,154,,,,choice_videos/3_050.mp4,,,,,,,test,,,,,av_experiment,,10,154,2021-04-07_10h24.20.769,,,,soldat,,,,,,,fängt,0,aron,,0,,,,Win32,,59.898173105695214,1080,,,,,88,,frech,Chrome,,images/soldat.png,,SESSION,,Den guten Soldaten fängt der freche Cowboy.,,av_experiment,gut,,,,,
﻿1,,1920,,,,,,,5,,2,2021-04-07_10h24.20.769,,0.5257399999536574,1,,0,,,cowboy,2021.1.2,schön,left,,,images/cowboy.png,,,,,,,,,,,155,,5,,,,1,155,,,,choice_videos/2_017.mp4,,,,,,,test,,,,,av_experiment,,0,155,2021-04-07_10h24.20.769,,,,radfahrer,,,,,,,jagt,0,aron,,400,,,,Win32,,59.898173105695214,1080,,,,,27,,blass,Chrome,,images/radfahrer.png,,SESSION,,Der schöne Radfahrer jagt den blassen Cowboy.,,av_experiment,böse,,,,,
﻿1,,1920,,,,,,,5,,4,2021-04-07_10h24.20.769,,1.2752999999793246,1,,0,,,soldat,2021.1.2,fies,left,,,images/soldat.png,,,,,,,,,,,156,,5,,,,1,156,,,,choice_videos/4_045.mp4,,,,,,,test,,,,,av_experiment,,400,156,2021-04-07_10h24.20.769,,,,pirat,,,,,,,erschießt,0,aron,,0,,,,Win32,,59.898173105695214,1080,,,,,79,,brav,Chrome,,images/pirat.png,,SESSION,,Den fiesen Piraten erschießt der brave Soldat.,,av_experiment,krank,,,,,
﻿1,,1920,,,,,,,5,,2,2021-04-07_10h24.20.769,,0.3628700000117533,1,,0,,,pilot,2021.1.2,alt,up,,,images/pilot.png,,,,,,,,,,,157,,5,,,,2,157,,,,choice_videos/2_055.mp4,,,,,,,test,,,,,av_experiment,,0,157,2021-04-07_10h24.20.769,,,,pfarrer,,,,,,,grüßt,0,aron,,400,,,,Win32,,59.898173105695214,1080,,,,,152,,klug,Chrome,,images/pfarrer.png,,SESSION,,Den alten Pfarrer grüßt der kluge Pilot.,,av_experiment,böse,,,,,
﻿1,,1920,,,,,,,5,,0,2021-04-07_10h24.20.769,,0.3049399999435991,1,,0,,,mann,2021.1.2,dick,right,,,images/mann.png,,,,,,,,,,,158,,5,,,,0,158,,,,choice_videos/0_030.mp4,,,,,,,test,,,,,av_experiment,,0,158,2021-04-07_10h24.20.769,,,,nikolaus,,,,,,,streichelt,0,aron,,0,,,,Win32,,59.898173105695214,1080,,,,,50,,alt,Chrome,,images/nikolaus.png,,SESSION,,Der dicke Nikolaus streichelt den alten Mann.,,av_experiment,klein,,,,,
﻿1,,1920,,,,,,,5,,3,2021-04-07_10h24.20.769,,0.18875499995192513,1,,0,,,cowboy,2021.1.2,gut,left,,,images/cowboy.png,,,,,,,,,,,159,,5,,,,1,159,,,,choice_videos/3_008.mp4,,,,,,,test,,,,,av_experiment,,10,159,2021-04-07_10h24.20.769,,,,soldat,,,,,,,fängt,0,aron,,0,,,,Win32,,59.898173105695214,1080,,,,,13,,müde,Chrome,,images/soldat.png,,SESSION,,Der gute Soldat fängt den frechen Cowboy.,,av_experiment,groß,,,,,
﻿,,1920,,0,,,,,5,1,4,2021-04-07_10h24.20.769,1,,,0,0,,,,2021.1.2,,,,,,,,,,0,,,,,,,,5,,,,,,,,1.4764800000120886,sj_videos/4_083.mp4,,,,,right,,test,1.0620149999740534,,,,av_experiment,right,400,,2021-04-07_10h24.20.769,,,,,,,,,,,,,aron,,0,0,,return,Win32,,59.898173105695214,1080,,,,1,2,,,Chrome,,,,SESSION,,"Der Maler, der die Vampire beschattet, gähnt.",0.4184900000109337,av_experiment,,,,,,
﻿,,1920,,1,,,,,5,7,0,2021-04-07_10h24.20.769,1,,,1,0,,,,2021.1.2,,,,,,,,,,0,,,,,,,,5,,,,,,,,2.3692099999752827,sj_videos/0_089.mp4,,,,,right,,test,,,,,av_experiment,right,0,,2021-04-07_10h24.20.769,,,,,,,,,,,,,aron,,0,1,,,Win32,,59.898173105695214,1080,,,,1,8,,,Chrome,,,,SESSION,,"Der Bräutigam, der die Riesen ersticht, lacht.",0.2661649999790825,av_experiment,,,,,,
﻿,,1920,,2,,,,,5,9,2,2021-04-07_10h24.20.769,1,,,1,0,,,,2021.1.2,,,,,,,,,,0,,,,,,,,5,,,,,,,,0.568230000033509,sj_videos/2_091.mp4,,,,,right,,test,,,,,av_experiment,left,0,,2021-04-07_10h24.20.769,,,,,,,,,,,,,aron,,400,2,,,Win32,,59.898173105695214,1080,,,,1,10,,,Chrome,,,,SESSION,,"Der Richter, der die Radfahrer erwürgt, weint.",0.15233999997144565,av_experiment,,,,,,
﻿,,1920,,3,,,,,5,8,1,2021-04-07_10h24.20.769,1,,,1,0,,,,2021.1.2,,,,,,,,,,0,,,,,,,,5,,,,,,,,0.08299500000430271,sj_videos/1_090.mp4,,,,,right,,test,,,,,av_experiment,right,0,,2021-04-07_10h24.20.769,,,,,,,,,,,,,aron,,10,3,,,Win32,,59.898173105695214,1080,,,,0,9,,,Chrome,,,,SESSION,,"Der Maler, der die Witwen ersticht, zittert.",1.9367199999978766,av_experiment,,,,,,
﻿,,1920,,4,,,,,5,4,2,2021-04-07_10h24.20.769,1,,,1,0,,,,2021.1.2,,,,,,,,,,0,,,,,,,,5,,,,,,,,0.9937650000210851,sj_videos/2_086.mp4,,,,,right,,test,,,,,av_experiment,right,0,,2021-04-07_10h24.20.769,,,,,,,,,,,,,aron,,400,4,,,Win32,,59.898173105695214,1080,,,,0,5,,,Chrome,,,,SESSION,,"Der Frisör, der die Bäcker erschießt, niest.",0.18406999995931983,av_experiment,,,,,,
﻿,,1920,,5,,,,,5,0,3,2021-04-07_10h24.20.769,1,,,0,0,,,,2021.1.2,,,,,,,,,,0,,,,,,,,5,,,,,,,,0.5172100000199862,sj_videos/3_082.mp4,,,,,right,,test,,,,,av_experiment,right,10,,2021-04-07_10h24.20.769,,,,,,,,,,,,,aron,,0,5,,,Win32,,59.898173105695214,1080,,,,1,1,,,Chrome,,,,SESSION,,"Der Punker, der die Maler beschattet, niest.",0.323389999975916,av_experiment,,,,,,
﻿,,1920,,6,,,,,5,3,1,2021-04-07_10h24.20.769,1,,,1,0,,,,2021.1.2,,,,,,,,,,0,,,,,,,,5,,,,,,,,1.0528599999961443,sj_videos/1_085.mp4,,,,,right,,test,,,,,av_experiment,left,0,,2021-04-07_10h24.20.769,,,,,,,,,,,,,aron,,10,6,,,Win32,,59.898173105695214,1080,,,,1,4,,,Chrome,,,,SESSION,,"Der Mönch, der die Astronauten erschießt, lacht.",0.2826250000507571,av_experiment,,,,,,
﻿,,1920,,7,,,,,5,5,3,2021-04-07_10h24.20.769,1,,,0,0,,,,2021.1.2,,,,,,,,,,0,,,,,,,,5,,,,,,,,0.7100050000008196,sj_videos/3_087.mp4,,,,,right,,test,,,,,av_experiment,right,10,,2021-04-07_10h24.20.769,,,,,,,,,,,,,aron,,0,7,,,Win32,,59.898173105695214,1080,,,,1,6,,,Chrome,,,,SESSION,,"Der Frisör, der die Köchinnen erschießt, grinst.",0.1574900000123307,av_experiment,,,,,,
﻿,,1920,,8,,,,,5,6,4,2021-04-07_10h24.20.769,1,,,1,0,,,,2021.1.2,,,,,,,,,,0,,,,,,,,5,,,,,,,,0.4083000000100583,sj_videos/4_088.mp4,,,,,left,,test,,,,,av_experiment,right,400,,2021-04-07_10h24.20.769,,,,,,,,,,,,,aron,,0,8,,,Win32,,59.898173105695214,1080,,,,1,7,,,Chrome,,,,SESSION,,"Der Koch, der die Touristinnen erschießt, niest.",0.2242850000038743,av_experiment,,,,,,
﻿,,1920,,9,,,,,5,2,0,2021-04-07_10h24.20.769,1,,,1,0,,,,2021.1.2,,,,,,,,,,0,,,,,,,,5,,,,,,,,0.4713150000316091,sj_videos/0_084.mp4,,,,,right,,test,,,,,av_experiment,right,0,,2021-04-07_10h24.20.769,,,,,,,,,,,,,aron,,0,9,,,Win32,,59.898173105695214,1080,,,,1,3,,,Chrome,,,,SESSION,,"Der Lehrer, der die Models bestiehlt, zittert.",0.15101500001037493,av_experiment,,,,,,
﻿,,1920,,,,,,,5,,,2021-04-07_10h24.20.769,,,,,0,,,,2021.1.2,,,,,,19.157430000021122,,,,,,,,,,,,5,,,,,,,,,,,,,,,,test,,,,,av_experiment,,,,2021-04-07_10h24.20.769,,,,,,,,,,,,,aron,,,,,,Win32,,59.898173105695214,1080,,,,,,,,Chrome,,,,SESSION,,,,av_experiment,,,return,,,
﻿,0,1280,,,return,,0,,15,,,2021-04-08_21h13.47.658,,,,,0,,,,2021.1.2,,,,,,,,,,,1,,0,,,,,15,,,,,,,,,,,,,,,,test,,,,4.75409999999988,av_experiment,,,,2021-04-08_21h13.47.658,,,,,,,,,,,,,aron,,,,,,Win32,return,60.06727534838642,720,4.638560000000112,,0,,,,,Chrome,,,,SESSION,,,,av_experiment,,,,,,
﻿1,,1280,,,,return,,return,15,,2,2021-04-08_21h13.47.658,,4.86892499999999,,,0,4.873160000000098,,pilot,2021.1.2,alt,right,,,images/pilot.png,,,,,,,2,,2.9703700000000026,,,,15,,0,,0,,2.2307499999999436,,,choice_videos/2_055.mp4,return,,,1.4246950000001561,,,test,,,,,av_experiment,,0,,2021-04-08_21h13.47.658,,,,pfarrer,,,,,return,,grüßt,,aron,0,400,,0,,Win32,,60.06727534838642,720,,,,,152,,klug,Chrome,,images/pfarrer.png,,SESSION,right,Den alten Pfarrer grüßt der kluge Pilot.,,av_experiment,dick,1,,1,,
﻿1,,1280,,,,,,,15,,4,2021-04-08_21h13.47.658,,4.622600000000119,,,0,,,bräutigam,2021.1.2,dick,left,,,images/bräutigam.png,,,,,,,3,,,,,,15,,0,,1,,,,,choice_videos/4_072.mp4,,,,,,,test,,,,,av_experiment,,400,,2021-04-08_21h13.47.658,,,,mönch,,,,,,,tröstet,,aron,1,0,,1,,Win32,,60.06727534838642,720,,,,,159,,hübsch,Chrome,,images/mönch.png,,SESSION,left,Den dicken Mönch tröstet der hübsche Bräutigam.,,av_experiment,alt,2,,1,,
﻿1,,1280,,,,,,,15,,3,2021-04-08_21h13.47.658,,4.36569499999996,,,0,,,riese,2021.1.2,flink,right,,,images/riese.png,,,,,,,0,,,,,,15,,0,,0,,,,,choice_videos/3_011.mp4,,,,,,,test,,,,,av_experiment,,10,,2021-04-08_21h13.47.658,,,,zwerg,,,,,,,fesselt,,aron,2,0,,2,,Win32,,60.06727534838642,720,,,,,143,,träge,Chrome,,images/zwerg.png,,SESSION,right,Der flinke Zwerg fesselt den trägen Riesen.,,av_experiment,alt,3,,1,,
﻿1,,1280,,,,,,,15,,1,2021-04-08_21h13.47.658,,7.115254999999934,,,0,,,kobold,2021.1.2,rüde,left,,,images/kobold.png,,,,,,,1,,,,,,15,,0,,1,,,,,choice_videos/1_016.mp4,,,,,,,test,,,,,av_experiment,,0,,2021-04-08_21h13.47.658,,,,cowboy,,,,,,,jagt,,aron,3,10,,3,,Win32,,60.06727534838642,720,,,,,146,,frech,Chrome,,images/cowboy.png,,SESSION,left,Der rüde Cowboy jagt den frechen Kobold.,,av_experiment,rüde,4,,1,,
﻿,,1280,,,,,,,15,,1,2021-04-08_21h13.47.658,,,,1,0,,,,2021.1.2,,,6.01891999999998,0,,,1,,,,,,,,,,0,15,,,1,,,,,1.171389999999974,sj_videos/1_083.mp4,,,,,right,,test,2.717104999999947,,,,av_experiment,right,0,,2021-04-08_21h13.47.658,,,return,,,,,,,,,,aron,,10,,,return,Win32,,60.06727534838642,720,,,,0,2,0,,Chrome,1,,,SESSION,,"Der Maler, der die Vampire beschattet, gähnt.",0.4266450000000077,av_experiment,,,,,0,
﻿,,1280,,,,,,,15,,0,2021-04-08_21h13.47.658,,,,1,0,,,,2021.1.2,,,,1,,,5,,,,,,,,,,0,15,,,1,,,,,0.5310699999999997,sj_videos/0_087.mp4,,,,,right,,test,,,,,av_experiment,right,0,,2021-04-08_21h13.47.658,,,,,,,,,,,,,aron,,0,,,,Win32,,60.06727534838642,720,,,,1,6,0,,Chrome,2,,,SESSION,,"Der Frisör, der die Köchinnen erschießt, grinst.",0.37081000000011954,av_experiment,,,,,1,
﻿,,1280,,,,,,,15,,2,2021-04-08_21h13.47.658,,,,1,0,,,,2021.1.2,,,,2,,,2,,,,,,,,,,0,15,,,1,,,,,1.8917149999999765,sj_videos/2_084.mp4,,,,,right,,test,,,,,av_experiment,right,0,,2021-04-08_21h13.47.658,,,,,,,,,,,,,aron,,400,,,,Win32,,60.06727534838642,720,,,,0,3,0,,Chrome,3,,,SESSION,,"Der Lehrer, der die Models bestiehlt, zittert.",0.45242000000007465,av_experiment,,,,,2,
﻿,,1280,,,,,,,15,,4,2021-04-08_21h13.47.658,,,,1,0,,,,2021.1.2,,,,3,,,9,,,,,,,,,,0,15,,,1,,,,,1.3870249999999942,sj_videos/4_091.mp4,,,,,left,,test,,,,,av_experiment,left,400,,2021-04-08_21h13.47.658,,,,,,,,,,,,,aron,,0,,,,Win32,,60.06727534838642,720,,,,0,10,0,,Chrome,4,,,SESSION,,"Der Richter, der die Radfahrer erwürgt, weint.",0.5164649999999256,av_experiment,,,,,3,
﻿,,1280,,,,,,,15,,3,2021-04-08_21h13.47.658,,,,0,0,,,,2021.1.2,,,,4,,,8,,,,,,,,,,0,15,,,1,,,,,0.8549450000000434,sj_videos/3_090.mp4,,,,,right,,test,,,,,av_experiment,right,10,,2021-04-08_21h13.47.658,,,,,,,,,,,,,aron,,0,,,,Win32,,60.06727534838642,720,,,,1,9,0,,Chrome,5,,,SESSION,,"Der Maler, der die Witwen ersticht, zittert.",0.4001850000001923,av_experiment,,,,,4,
﻿,,1280,,,,,,,15,,1,2021-04-08_21h13.47.658,,,,1,0,,,,2021.1.2,,,,5,,,6,,,,,,,,,,0,15,,,1,,,,,0.19580999999993765,sj_videos/1_088.mp4,,,,,right,,test,,,,,av_experiment,right,0,,2021-04-08_21h13.47.658,,,,,,,,,,,,,aron,,10,,,,Win32,,60.06727534838642,720,,,,0,7,0,,Chrome,6,,,SESSION,,"Der Koch, der die Touristinnen erschießt, niest.",0.3842250000000149,av_experiment,,,,,5,
﻿,,1280,,,,,,,15,,0,2021-04-08_21h13.47.658,,,,1,0,,,,2021.1.2,,,,6,,,0,,,,,,,,,,0,15,,,1,,,,,0.7310150000000704,sj_videos/0_082.mp4,,,,,right,,test,,,,,av_experiment,right,0,,2021-04-08_21h13.47.658,,,,,,,,,,,,,aron,,0,,,,Win32,,60.06727534838642,720,,,,1,1,0,,Chrome,7,,,SESSION,,"Der Punker, der die Maler beschattet, niest.",0.3685699999998633,av_experiment,,,,,6,
﻿,,1280,,,,,,,15,,2,2021-04-08_21h13.47.658,,,,1,0,,,,2021.1.2,,,,7,,,7,,,,,,,,,,0,15,,,1,,,,,0.8704199999999673,sj_videos/2_089.mp4,,,,,right,,test,,,,,av_experiment,right,0,,2021-04-08_21h13.47.658,,,,,,,,,,,,,aron,,400,,,,Win32,,60.06727534838642,720,,,,0,8,0,,Chrome,8,,,SESSION,,"Der Bräutigam, der die Riesen ersticht, lacht.",0.40706999999997606,av_experiment,,,,,7,
﻿,,1280,,,,,,,15,,3,2021-04-08_21h13.47.658,,,,0,0,,,,2021.1.2,,,,8,,,3,,,,,,,,,,0,15,,,1,,,,,0.6550649999999223,sj_videos/3_085.mp4,,,,,right,,test,,,,,av_experiment,right,10,,2021-04-08_21h13.47.658,,,,,,,,,,,,,aron,,0,,,,Win32,,60.06727534838642,720,,,,1,4,0,,Chrome,9,,,SESSION,,"Der Mönch, der die Astronauten erschießt, lacht.",0.3400249999999687,av_experiment,,,,,8,
﻿,,1280,,,,,,,15,,4,2021-04-08_21h13.47.658,,,,1,0,,,,2021.1.2,,,,9,,,4,,,,,,,,,,0,15,,,1,,,,,5.920874999999995,sj_videos/4_086.mp4,,,,,left,,test,,,,,av_experiment,right,400,,2021-04-08_21h13.47.658,,,,,,,,,,,,,aron,,0,,,,Win32,,60.06727534838642,720,,,,1,5,0,,Chrome,10,,,SESSION,,"Der Frisör, der die Bäcker erschießt, niest.",0.5825199999999313,av_experiment,,,,,9,
﻿1,,1280,,,,,,,15,,3,2021-04-08_21h13.47.658,,4.93505499999992,1,,0,,,zauberer,2021.1.2,frech,up,,,images/zauberer.png,,,,,,,,,,,0,,15,,,,2,0,,,,choice_videos/3_068.mp4,,,,,,,test,,0,,,av_experiment,,10,0,2021-04-08_21h13.47.658,,,,kobold,,,,,,2,tadelt,0,aron,,0,,,,Win32,,60.06727534838642,720,,,,,158,,böse,Chrome,,images/kobold.png,,SESSION,up,Den frechen Kobold tadelt der böse Zauberer.,,av_experiment,böse,1,,,,
﻿1,,1280,,,,,,,15,,1,2021-04-08_21h13.47.658,,4.349350000000015,1,,0,,,tiger,2021.1.2,wach,right,,,images/tiger.png,,,,,,,,,,,1,,15,,,,0,1,,,,choice_videos/1_034.mp4,,,,,,,test,,0,,,av_experiment,,0,1,2021-04-08_21h13.47.658,,,,löwe,,,,,,4,tritt,0,aron,,10,,,,Win32,,60.06727534838642,720,,,,,56,,müde,Chrome,,images/löwe.png,,SESSION,right,Der wache Löwe tritt den müden Tiger.,,av_experiment,alt,3,,,,
﻿1,,1280,,,,,,,15,,2,2021-04-08_21h13.47.658,,4.376285000000053,1,,0,,,vater,2021.1.2,süß,up,,,images/vater.png,,,,,,,,,,,2,,15,,,,2,2,,,,choice_videos/2_018.mp4,,,,,,,test,,0,,,av_experiment,,0,2,2021-04-08_21h13.47.658,,,,junge,,,,,,6,küsst,0,aron,,400,,,,Win32,,60.06727534838642,720,,,,,147,,lieb,Chrome,,images/junge.png,,SESSION,up,Der süße Junge küsst den lieben Vater.,,av_experiment,blind,5,,,,
﻿1,,1280,,,,,,,15,,1,2021-04-08_21h13.47.658,,4.388759999999991,1,,0,,,pilot,2021.1.2,dünn,right,,,images/pilot.png,,,,,,,,,,,3,,15,,,,0,3,,,,choice_videos/1_073.mp4,,,,,,,test,,0,,,av_experiment,,0,3,2021-04-08_21h13.47.658,,,,arzt,,,,,,8,umarmt,0,aron,,10,,,,Win32,,60.06727534838642,720,,,,,126,,treu,Chrome,,images/arzt.png,,SESSION,right,Den dünnen Arzt umarmt der treue Pilot.,,av_experiment,flink,7,,,,
﻿1,,1280,,,,,,,15,,3,2021-04-08_21h13.47.658,,3.4611050000000887,1,,0,,,maulwurf,2021.1.2,dick,left,,,images/maulwurf.png,,,,,,,,,,,4,,15,,,,1,4,,,,choice_videos/3_058.mp4,,,,,,,test,,0,,,av_experiment,,10,4,2021-04-08_21h13.47.658,,,,koala,,,,,,10,jagt,0,aron,,0,,,,Win32,,60.06727534838642,720,,,,,103,,klein,Chrome,,images/koala.png,,SESSION,left,Den dicken Koala jagt der kleine Maulwurf.,,av_experiment,blind,9,,,,
﻿1,,1280,,,,,,,15,,1,2021-04-08_21h13.47.658,,3.7055299999999534,1,,0,,,cowboy,2021.1.2,schön,right,,,images/cowboy.png,,,,,,,,,,,5,,15,,,,0,5,,,,choice_videos/1_017.mp4,,,,,,,test,,0,,,av_experiment,,0,5,2021-04-08_21h13.47.658,,,,radfahrer,,,,,,12,jagt,0,aron,,10,,,,Win32,,60.06727534838642,720,,,,,26,,blass,Chrome,,images/radfahrer.png,,SESSION,right,Der schöne Radfahrer jagt den blassen Cowboy.,,av_experiment,wach,11,,,,
﻿1,,1280,,,,,,,15,,0,2021-04-08_21h13.47.658,,4.41312999999991,1,,0,,,tourist,2021.1.2,flink,right,,,images/tourist.png,,,,,,,,,,,6,,15,,,,0,6,,,,choice_videos/0_036.mp4,,,,,,,test,,0,,,av_experiment,,0,6,2021-04-08_21h13.47.658,,,,maler,,,,,,14,verfolgt,0,aron,,0,,,,Win32,,60.06727534838642,720,,,,,60,,blass,Chrome,,images/maler.png,,SESSION,right,Der flinke Maler verfolgt den blassen Touristen.,,av_experiment,alt,13,,,,
﻿1,,1280,,,,,,,15,,3,2021-04-08_21h13.47.658,,3.337374999999838,1,,0,,,vater,2021.1.2,süß,up,,,images/vater.png,,,,,,,,,,,7,,15,,,,2,7,,,,choice_videos/3_018.mp4,,,,,,,test,,0,,,av_experiment,,10,7,2021-04-08_21h13.47.658,,,,junge,,,,,,16,küsst,0,aron,,0,,,,Win32,,60.06727534838642,720,,,,,148,,lieb,Chrome,,images/junge.png,,SESSION,up,Der süße Junge küsst den lieben Vater.,,av_experiment,flink,15,,,,
﻿0,,1280,,,,,,,15,,2,2021-04-08_21h13.47.658,,4.911709999999857,1,,0,,14.4994650000001,prinz,2021.1.2,böse,left,,,images/prinz.png,,,return,,,,,,,,8,,15,,,,0,8,,,,choice_videos/2_052.mp4,,,,,,,test,,0,,,av_experiment,,0,8,2021-04-08_21h13.47.658,,,,pirat,,,,,,18,fesselt,0,aron,,400,,,,Win32,,60.06727534838642,720,,,,,92,,jung,Chrome,,images/pirat.png,,SESSION,right,Den bösen Piraten fesselt der junge Prinz.,,av_experiment,müde,17,,,,
﻿1,,1280,,,,,,,15,,0,2021-04-08_21h13.47.658,,4.061799999999948,1,,0,,,zauberer,2021.1.2,blind,right,,,images/zauberer.png,,,,,,,,,,,9,,15,,,,0,9,,,,choice_videos/0_051.mp4,,,,,,,test,,0,,,av_experiment,,0,9,2021-04-08_21h13.47.658,,,,kasper,,,,,,20,fesselt,0,aron,,0,,,,Win32,,60.06727534838642,720,,,,,90,,groß,Chrome,,images/kasper.png,,SESSION,right,Den blinden Kasper fesselt der große Zauberer.,,av_experiment,fies,19,,,,
﻿1,,1280,,,,,,,15,,1,2021-04-08_21h13.47.658,,3.4508749999999964,1,,0,,,frisör,2021.1.2,still,left,,,images/frisör.png,,,,,,,,,,,10,,15,,,,1,10,,,,choice_videos/1_013.mp4,,,,,,,test,,0,,,av_experiment,,0,10,2021-04-08_21h13.47.658,,,,postbote,,,,,,22,grüßt,0,aron,,10,,,,Win32,,60.06727534838642,720,,,,,21,,dick,Chrome,,images/postbote.png,,SESSION,left,Der stille Postbote grüßt den dicken Frisör.,,av_experiment,frech,21,,,,
﻿1,,1280,,,,,,,15,,2,2021-04-08_21h13.47.658,,2.1376399999999194,1,,0,,,maler,2021.1.2,brav,left,,,images/maler.png,,,,,,,,,,,11,,15,,,,1,11,,,,choice_videos/2_039.mp4,,,,,,,test,,0,,,av_experiment,,0,11,2021-04-08_21h13.47.658,,,,kasper,,,,,,24,weckt,0,aron,,400,,,,Win32,,60.06727534838642,720,,,,,67,,blind,Chrome,,images/kasper.png,,SESSION,left,Der brave Kasper weckt den blinden Maler.,,av_experiment,stur,23,,,,
﻿1,,1280,,,,,,,15,,4,2021-04-08_21h13.47.658,,4.353234999999813,1,,0,,,frosch,2021.1.2,arm,right,,,images/frosch.png,,,,,,,,,,,12,,15,,,,0,12,,,,choice_videos/4_033.mp4,,,,,,,test,,0,,,av_experiment,,400,12,2021-04-08_21h13.47.658,,,,pinguin,,,,,,26,tritt,0,aron,,0,,,,Win32,,60.06727534838642,720,,,,,54,,nass,Chrome,,images/pinguin.png,,SESSION,right,Der arme Pinguin tritt den nassen Frosch.,,av_experiment,brav,25,,,,
﻿1,,1280,,,,,,,15,,1,2021-04-08_21h13.47.658,,3.588664999999992,1,,0,,,drache,2021.1.2,groß,right,,,images/drache.png,,,,,,,,,,,13,,15,,,,0,13,,,,choice_videos/1_023.mp4,,,,,,,test,,0,,,av_experiment,,0,13,2021-04-08_21h13.47.658,,,,büffel,,,,,,28,malt,0,aron,,10,,,,Win32,,60.06727534838642,720,,,,,36,,gut,Chrome,,images/büffel.png,,SESSION,right,Der große Büffel malt den guten Drachen.,,av_experiment,alt,27,,,,
﻿1,,1280,,,,,,,15,,4,2021-04-08_21h13.47.658,,5.995740000000069,1,,0,,,kobold,2021.1.2,böse,up,,,images/kobold.png,,,,,,,,,,,14,,15,,,,2,14,,,,choice_videos/4_032.mp4,,,,,,,test,,0,,,av_experiment,,400,14,2021-04-08_21h13.47.658,,,,zauberer,,,,,,30,tadelt,0,aron,,0,,,,Win32,,60.06727534838642,720,,,,,149,,frech,Chrome,,images/zauberer.png,,SESSION,up,Der böse Zauberer tadelt den frechen Kobold.,,av_experiment,müde,29,,,,
﻿1,,1280,,,,,,,15,,1,2021-04-08_21h13.47.658,,1.952449999999999,1,,0,,,pinguin,2021.1.2,nass,left,,,images/pinguin.png,,,,,,,,,,,15,,15,,,,1,15,,,,choice_videos/1_069.mp4,,,,,,,test,,0,,,av_experiment,,0,15,2021-04-08_21h13.47.658,,,,frosch,,,,,,32,tritt,0,aron,,10,,,,Win32,,60.06727534838642,720,,,,,121,,arm,Chrome,,images/frosch.png,,SESSION,left,Den nassen Frosch tritt der arme Pinguin.,,av_experiment,dick,31,,,,
﻿1,,1280,,,,,,,15,,0,2021-04-08_21h13.47.658,,2.0184649999998783,1,,0,,2.425224999999955,gärtner,2021.1.2,dreist,left,,,images/gärtner.png,,,return,,,,,,,,16,,15,,,,1,16,,,,choice_videos/0_048.mp4,,,,,,,test,,0,,,av_experiment,,0,16,2021-04-08_21h13.47.658,,,,postbote,,,,,,34,erwürgt,0,aron,,0,,,,Win32,,60.06727534838642,720,,,,,85,,böse,Chrome,,images/postbote.png,,SESSION,left,Den dreisten Postboten erwürgt der böse Gärtner.,,av_experiment,blind,33,,,,
﻿0,,1280,,,,,,,15,,4,2021-04-08_21h13.47.658,,2.3749849999998673,1,,0,,,panda,2021.1.2,klein,right,,,images/panda.png,,,,,,,,,,,17,,15,,,,1,17,,,,choice_videos/4_061.mp4,,,,,,,test,,0,,,av_experiment,,400,17,2021-04-08_21h13.47.658,,,,koala,,,,,,36,malt,0,aron,,0,,,,Win32,,60.06727534838642,720,,,,,109,,dick,Chrome,,images/koala.png,,SESSION,left,Den kleinen Koala malt der dicke Panda.,,av_experiment,grau,35,,,,
﻿1,,1280,,,,,,,15,,1,2021-04-08_21h13.47.658,,2.0694599999999923,1,,0,,,esel,2021.1.2,klug,left,,,images/esel.png,,,,,,,,,,,18,,15,,,,1,18,,,,choice_videos/1_020.mp4,,,,,,,test,,0,,,av_experiment,,0,18,2021-04-08_21h13.47.658,,,,pinguin,,,,,,38,küsst,0,aron,,10,,,,Win32,,60.06727534838642,720,,,,,31,,alt,Chrome,,images/pinguin.png,,SESSION,left,Der kluge Pinguin küsst den alten Esel.,,av_experiment,fies,37,,,,
﻿1,,1280,,,,,,,15,,3,2021-04-08_21h13.47.658,,3.175664999999981,1,,0,,,junge,2021.1.2,nett,right,,,images/junge.png,,,,,,,,,,,19,,15,,,,0,19,,,,choice_videos/3_035.mp4,,,,,,,test,,0,,,av_experiment,,10,19,2021-04-08_21h13.47.658,,,,lehrer,,,,,,40,tröstet,0,aron,,0,,,,Win32,,60.06727534838642,720,,,,,58,,arm,Chrome,,images/lehrer.png,,SESSION,right,Der nette Lehrer tröstet den armen Jungen.,,av_experiment,nett,39,,,,
﻿1,,1280,,,,,,,15,,0,2021-04-08_21h13.47.658,,4.137189999999919,1,,0,,,bauer,2021.1.2,stark,up,,,images/bauer.png,,,,,,,,,,,20,,15,,,,2,20,,,,choice_videos/0_065.mp4,,,,,,,test,,0,,,av_experiment,,0,20,2021-04-08_21h13.47.658,,,,tourist,,,,,,42,schubst,0,aron,,0,,,,Win32,,60.06727534838642,720,,,,,155,,lahm,Chrome,,images/tourist.png,,SESSION,up,Den starken Touristen schubst der lahme Bauer.,,av_experiment,süß,41,,,,
﻿1,,1280,,,,,,,15,,1,2021-04-08_21h13.47.658,,3.5801850000000286,1,,0,,,tourist,2021.1.2,fies,right,,,images/tourist.png,,,,,,,,,,,21,,15,,,,0,21,,,,choice_videos/1_005.mp4,,,,,,,test,,0,,,av_experiment,,0,21,2021-04-08_21h13.47.658,,,,koch,,,,,,44,ersticht,0,aron,,10,,,,Win32,,60.06727534838642,720,,,,,2,,arm,Chrome,,images/koch.png,,SESSION,right,Der fiese Koch ersticht den armen Touristen.,,av_experiment,dick,43,,,,
﻿1,,1280,,,,,,,15,,0,2021-04-08_21h13.47.658,,3.23154999999997,1,,0,,,esel,2021.1.2,klug,right,,,images/esel.png,,,,,,,,,,,22,,15,,,,0,22,,,,choice_videos/0_020.mp4,,,,,,,test,,0,,,av_experiment,,0,22,2021-04-08_21h13.47.658,,,,pinguin,,,,,,46,küsst,0,aron,,0,,,,Win32,,60.06727534838642,720,,,,,30,,alt,Chrome,,images/pinguin.png,,SESSION,right,Der kluge Pinguin küsst den alten Esel.,,av_experiment,böse,45,,,,
﻿1,,1280,,,,,,,15,,2,2021-04-08_21h13.47.658,,5.002424999999903,1,,0,,,gärtner,2021.1.2,nett,right,,,images/gärtner.png,,,,,,,,,,,23,,15,,,,0,23,,,,choice_videos/2_026.mp4,,,,,,,test,,0,,,av_experiment,,0,23,2021-04-08_21h13.47.658,,,,maler,,,,,,48,massiert,0,aron,,400,,,,Win32,,60.06727534838642,720,,,,,42,,still,Chrome,,images/maler.png,,SESSION,right,Der nette Maler massiert den stillen Gärtner.,,av_experiment,gut,47,,,,
﻿1,,1280,,,,,,,15,,3,2021-04-08_21h13.47.658,,3.5871749999998883,1,,0,,6.151220000000194,pilot,2021.1.2,alt,right,,,images/pilot.png,,,return,,,,,,,,24,,15,,,,0,24,,,,choice_videos/3_055.mp4,,,,,,,test,,0,,,av_experiment,,10,24,2021-04-08_21h13.47.658,,,,pfarrer,,,,,,50,grüßt,0,aron,,0,,,,Win32,,60.06727534838642,720,,,,,98,,klug,Chrome,,images/pfarrer.png,,SESSION,right,Den alten Pfarrer grüßt der kluge Pilot.,,av_experiment,nett,49,,,,
﻿1,,1280,,,,,,,15,,2,2021-04-08_21h13.47.658,,2.240000000000009,1,,0,,,cowboy,2021.1.2,schön,left,,,images/cowboy.png,,,,,,,,,,,25,,15,,,,1,25,,,,choice_videos/2_017.mp4,,,,,,,test,,0,,,av_experiment,,0,25,2021-04-08_21h13.47.658,,,,radfahrer,,,,,,52,jagt,0,aron,,400,,,,Win32,,60.06727534838642,720,,,,,27,,blass,Chrome,,images/radfahrer.png,,SESSION,left,Der schöne Radfahrer jagt den blassen Cowboy.,,av_experiment,böse,51,,,,
﻿1,,1280,,,,,,,15,,1,2021-04-08_21h13.47.658,,1.7325150000001486,1,,0,,,elch,2021.1.2,taub,left,,,images/elch.png,,,,,,,,,,,26,,15,,,,1,26,,,,choice_videos/1_007.mp4,,,,,,,test,,0,,,av_experiment,,0,26,2021-04-08_21h13.47.658,,,,elefant,,,,,,54,fängt,0,aron,,10,,,,Win32,,60.06727534838642,720,,,,,11,,müde,Chrome,,images/elefant.png,,SESSION,left,Der taube Elefant fängt den müden Elch.,,av_experiment,böse,53,,,,
﻿1,,1280,,,,,,,15,,3,2021-04-08_21h13.47.658,,3.22840999999994,1,,0,,,koch,2021.1.2,arm,left,,,images/koch.png,,,,,,,,,,,27,,15,,,,1,27,,,,choice_videos/3_047.mp4,,,,,,,test,,0,,,av_experiment,,10,27,2021-04-08_21h13.47.658,,,,tourist,,,,,,56,ersticht,0,aron,,0,,,,Win32,,60.06727534838642,720,,,,,83,,fies,Chrome,,images/tourist.png,,SESSION,left,Den armen Touristen ersticht der fiese Koch.,,av_experiment,böse,55,,,,
