videoPath,SJ_trials_skip.thisRepN,SJ_trials_after.thisIndex,SJ_trials_between.ran,SJ_trials_before.thisRepN,training.thisTrialN,trials.thisTrialN,SJ_trials_between.thisIndex,block_counter_sj,attribute2,s_adjust.thisRepN,SJ_trials_skip.thisTrialN,response_distortion.keys,cont_6.keys,response_distortion.rt,browser,key_resp.rt,SJ_trials_between.thisN,corrAns,SJ_trials_skip.thisIndex,s_adjust.thisTrialN,exit.rt,SJ_trials_before.thisIndex,cont_0.rt,block_counter_choice,trials.thisN,cont_5.keys,cont_7.keys,id,key_resp.keys,psychopyVersion,echo,choice_response.keys,latency,response_sync.corr,item,response_sync.rt,SJ_trials_skip.ran,exit.keys,trial_counter_sj,cont_3.rt,trial_counter_choice,SJ_trials_between.thisTrialN,OS,training.ran,SJ_trials_after.thisRepN,imagePath2,cont_0.keys,__participant,xResolution,participant,target_loc,SJ_trials_after.thisN,cont_5.rt,date,choice_response.corr,cont_1.keys,__session,entity2,training.thisN,SJ_trials_before.ran,trials.thisRepN,SJ_trials_skip.thisN,SJ_trials_after.thisTrialN,SJ_trials_between.thisRepN,imagePath,choice_response.rt,cond,globalClockTime,__experimentName,cont_2.keys,sentence,yResolution,SJ_trials_before.thisN,verb,cont_1.rt,trials.ran,response_distortion.corr,s_adjust.thisIndex,attribute1,entity1,cont_4.keys,cont_2.rt,trial_counter_training,response_sync.keys,__datetime,cont_3.keys,cont_7.rt,trials.thisIndex,researcher,SJ_trials_after.ran,training.thisIndex,SJ_trials_before.thisTrialN,training.thisRepN,group,s_adjust.ran,s_adjust.thisN,fill_attribute,cont_4.rt,frameRate,expName,cont_6.rt
﻿,,,,,,,,,,0,,,,,Chrome,,,,,0,,,49.705610000004526,,,,,test,,2021.1.2,,,,,,,,,,,,,Win32,,,,return,5,1920,5,,,,2021-04-07_10h24.20.769,,return,SESSION,,,,,,,,,,,,av_experiment,,,1080,,,4.554124999966007,,,0,,,,,,,2021-04-07_10h24.20.769,,,,aron,,,,,0,1,0,,,59.898173105695214,av_experiment,
﻿choice_videos/4_072.mp4,,,,,0,,,,hübsch,,,,,,Chrome,,,,,,,,,,,return,,test,,2021.1.2,400,left,0,,159,,,,,1.033724999986589,,,Win32,1,,images/bräutigam.png,,5,1920,5,1,,1.1138800000189804,2021-04-07_10h24.20.769,1,,SESSION,bräutigam,0,,,,,,images/mönch.png,9.138604999985546,4,,av_experiment,return,Den dicken Mönch tröstet der hübsche Bräutigam.,1080,,tröstet,,,,,dick,mönch,return,2.6836500000208616,,,2021-04-07_10h24.20.769,return,,,aron,,3,,0,0,,,alt,0.9517700000433251,59.898173105695214,av_experiment,
﻿choice_videos/1_016.mp4,,,,,1,,,,frech,,,,,,Chrome,,,,,,,,,,,,,test,,2021.1.2,0,left,10,,146,,,,,,,,Win32,1,,images/kobold.png,,5,1920,5,1,,,2021-04-07_10h24.20.769,1,,SESSION,kobold,1,,,,,,images/cowboy.png,6.14865499996813,1,,av_experiment,,Der rüde Cowboy jagt den frechen Kobold.,1080,,jagt,,,,,rüde,cowboy,,,,,2021-04-07_10h24.20.769,,,,aron,,1,,0,0,,,rüde,,59.898173105695214,av_experiment,
﻿choice_videos/3_011.mp4,,,,,2,,,,träge,,,,,,Chrome,,,,,,,,,,,,,test,,2021.1.2,10,left,0,,143,,,,,,,,Win32,1,,images/riese.png,,5,1920,5,0,,,2021-04-07_10h24.20.769,0,,SESSION,riese,2,,,,,,images/zwerg.png,3.6907549999887124,3,,av_experiment,,Der flinke Zwerg fesselt den trägen Riesen.,1080,,fesselt,,,,,flink,zwerg,,,,,2021-04-07_10h24.20.769,,,,aron,,0,,0,0,,,alt,,59.898173105695214,av_experiment,
﻿choice_videos/2_055.mp4,,,,,3,,,,klug,,,,,,Chrome,,,,,,,,,,,,,test,,2021.1.2,0,left,400,,152,,,,,,,,Win32,1,,images/pilot.png,,5,1920,5,0,,,2021-04-07_10h24.20.769,0,,SESSION,pilot,3,,,,,,images/pfarrer.png,4.048764999955893,2,,av_experiment,,Den alten Pfarrer grüßt der kluge Pilot.,1080,,grüßt,,,,,alt,pfarrer,,,,,2021-04-07_10h24.20.769,,,,aron,,2,,0,0,,,dick,,59.898173105695214,av_experiment,
﻿sj_videos/1_083.mp4,,,,0,,,,,,,,right,return,0.2889500000164844,Chrome,,,,,,,1,,,,,return,test,,2021.1.2,0,,10,0,2,1.381569999968633,,,,,,,Win32,,,,,5,1920,5,,,,2021-04-07_10h24.20.769,,,SESSION,,,1,,,,,,,1,,av_experiment,,"Der Maler, der die Vampire beschattet, gähnt.",1080,0,,,,1,,,,,,,right,2021-04-07_10h24.20.769,,2.1780150000122376,,aron,,,0,,0,,,,,59.898173105695214,av_experiment,2.2868100000196137
﻿sj_videos/2_089.mp4,,,,0,,,,,,,,right,,0.3785149999894202,Chrome,,,,,,,7,,,,,,test,,2021.1.2,0,,400,1,8,1.4516200000070967,,,,,,,Win32,,,,,5,1920,5,,,,2021-04-07_10h24.20.769,,,SESSION,,,1,,,,,,,2,,av_experiment,,"Der Bräutigam, der die Riesen ersticht, lacht.",1080,1,,,,1,,,,,,,left,2021-04-07_10h24.20.769,,,,aron,,,1,,0,,,,,59.898173105695214,av_experiment,
﻿sj_videos/4_086.mp4,,,,0,,,,,,,,right,,0.36706999997841194,Chrome,,,,,,,4,,,,,,test,,2021.1.2,400,,0,0,5,0.4669949999661185,,,,,,,Win32,,,,,5,1920,5,,,,2021-04-07_10h24.20.769,,,SESSION,,,1,,,,,,,4,,av_experiment,,"Der Frisör, der die Bäcker erschießt, niest.",1080,2,,,,0,,,,,,,left,2021-04-07_10h24.20.769,,,,aron,,,2,,0,,,,,59.898173105695214,av_experiment,
﻿sj_videos/0_087.mp4,,,,0,,,,,,,,left,,0.42288999998709187,Chrome,,,,,,,5,,,,,,test,,2021.1.2,0,,0,1,6,1.1768799999845214,,,,,,,Win32,,,,,5,1920,5,,,,2021-04-07_10h24.20.769,,,SESSION,,,1,,,,,,,0,,av_experiment,,"Der Frisör, der die Köchinnen erschießt, grinst.",1080,3,,,,0,,,,,,,right,2021-04-07_10h24.20.769,,,,aron,,,3,,0,,,,,59.898173105695214,av_experiment,
﻿sj_videos/2_084.mp4,,,,0,,,,,,,,right,,0.44130499998573214,Chrome,,,,,,,2,,,,,,test,,2021.1.2,0,,400,1,3,0.809914999990724,,,,,,,Win32,,,,,5,1920,5,,,,2021-04-07_10h24.20.769,,,SESSION,,,1,,,,,,,2,,av_experiment,,"Der Lehrer, der die Models bestiehlt, zittert.",1080,4,,,,1,,,,,,,left,2021-04-07_10h24.20.769,,,,aron,,,4,,0,,,,,59.898173105695214,av_experiment,
﻿sj_videos/4_091.mp4,,,,0,,,,,,,,left,,0.41650499997194856,Chrome,,,,,,,9,,,,,,test,,2021.1.2,400,,0,1,10,0.13414499995997176,,,,,,,Win32,,,,,5,1920,5,,,,2021-04-07_10h24.20.769,,,SESSION,,,1,,,,,,,4,,av_experiment,,"Der Richter, der die Radfahrer erwürgt, weint.",1080,5,,,,1,,,,,,,right,2021-04-07_10h24.20.769,,,,aron,,,5,,0,,,,,59.898173105695214,av_experiment,
﻿sj_videos/3_090.mp4,,,,0,,,,,,,,left,,0.6754450000007637,Chrome,,,,,,,8,,,,,,test,,2021.1.2,10,,0,1,9,1.041399999987334,,,,,,,Win32,,,,,5,1920,5,,,,2021-04-07_10h24.20.769,,,SESSION,,,1,,,,,,,3,,av_experiment,,"Der Maler, der die Witwen ersticht, zittert.",1080,6,,,,1,,,,,,,right,2021-04-07_10h24.20.769,,,,aron,,,6,,0,,,,,59.898173105695214,av_experiment,
﻿sj_videos/0_082.mp4,,,,0,,,,,,,,right,,0.28377499995986,Chrome,,,,,,,0,,,,,,test,,2021.1.2,0,,0,1,1,0.734085000003688,,,,,,,Win32,,,,,5,1920,5,,,,2021-04-07_10h24.20.769,,,SESSION,,,1,,,,,,,0,,av_experiment,,"Der Punker, der die Maler beschattet, niest.",1080,7,,,,1,,,,,,,right,2021-04-07_10h24.20.769,,,,aron,,,7,,0,,,,,59.898173105695214,av_experiment,
﻿sj_videos/3_085.mp4,,,,0,,,,,,,,right,,0.3003500000340864,Chrome,,,,,,,3,,,,,,test,,2021.1.2,10,,0,1,4,0.0033600000315345824,,,,,,,Win32,,,,,5,1920,5,,,,2021-04-07_10h24.20.769,,,SESSION,,,1,,,,,,,3,,av_experiment,,"Der Mönch, der die Astronauten erschießt, lacht.",1080,8,,,,0,,,,,,,right,2021-04-07_10h24.20.769,,,,aron,,,8,,0,,,,,59.898173105695214,av_experiment,
﻿sj_videos/1_088.mp4,,,,0,,,,,,,,right,,0.31245999998645857,Chrome,,,,,,,6,,,,,,test,,2021.1.2,0,,10,1,7,0.5870799999684095,,,,,,,Win32,,,,,5,1920,5,,,,2021-04-07_10h24.20.769,,,SESSION,,,1,,,,,,,1,,av_experiment,,"Der Koch, der die Touristinnen erschießt, niest.",1080,9,,,,1,,,,,,,left,2021-04-07_10h24.20.769,,,,aron,,,9,,0,,,,,59.898173105695214,av_experiment,
﻿choice_videos/4_079.mp4,,,,,,0,,,groß,,,,,,Chrome,,,,,,,,,,0,,,test,,2021.1.2,400,left,0,,139,,,,,,,,Win32,,,images/kapitän.png,,5,1920,5,1,,,2021-04-07_10h24.20.769,1,,SESSION,kapitän,,,0,,,,images/matrose.png,3.3895299999858253,4,,av_experiment,,Den armen Matrosen weckt der große Kapitän.,1080,,weckt,,1,,,arm,matrose,,,,,2021-04-07_10h24.20.769,,,0,aron,,,,,0,,,klein,,59.898173105695214,av_experiment,
﻿choice_videos/0_007.mp4,,,,,,1,,,müde,,,,,,Chrome,,,,,,,,,,1,,,test,,2021.1.2,0,right,0,,10,,,,,,,,Win32,,,images/elch.png,,5,1920,5,0,,,2021-04-07_10h24.20.769,1,,SESSION,elch,,,0,,,,images/elefant.png,1.868465000006836,0,,av_experiment,,Der taube Elefant fängt den müden Elch.,1080,,fängt,,1,,,taub,elefant,,,,,2021-04-07_10h24.20.769,,,1,aron,,,,,0,,,schlau,,59.898173105695214,av_experiment,
﻿choice_videos/4_055.mp4,,,,,,2,,,klug,,,,,,Chrome,,,,,,,,,,2,,,test,,2021.1.2,400,right,0,,99,,,,,,,,Win32,,,images/pilot.png,,5,1920,5,1,,,2021-04-07_10h24.20.769,0,,SESSION,pilot,,,0,,,,images/pfarrer.png,1.7924549999879673,4,,av_experiment,,Den alten Pfarrer grüßt der kluge Pilot.,1080,,grüßt,,1,,,alt,pfarrer,,,,,2021-04-07_10h24.20.769,,,2,aron,,,,,0,,,blind,,59.898173105695214,av_experiment,
﻿choice_videos/2_047.mp4,,,,,,3,,,fies,,,,,,Chrome,,,,,,,,,,3,,,test,,2021.1.2,0,right,400,,82,,,,,,,,Win32,,,images/koch.png,,5,1920,5,0,,,2021-04-07_10h24.20.769,1,,SESSION,koch,,,0,,,,images/tourist.png,3.259380000003148,2,,av_experiment,,Den armen Touristen ersticht der fiese Koch.,1080,,ersticht,,1,,,arm,tourist,,,,,2021-04-07_10h24.20.769,,,3,aron,,,,,0,,,klug,,59.898173105695214,av_experiment,
﻿choice_videos/3_076.mp4,,,,,,4,,,lahm,,,,,,Chrome,,,,,,,,,,4,,,test,,2021.1.2,10,right,0,,133,,,,,,,,Win32,,,images/elch.png,,5,1920,5,1,,,2021-04-07_10h24.20.769,0,,SESSION,elch,,,0,,,,images/elefant.png,2.180065000022296,3,,av_experiment,,Den schnellen Elefanten verfolgt der lahme Elch.,1080,,verfolgt,,1,,,schnell,elefant,,,,,2021-04-07_10h24.20.769,,,4,aron,,,,,0,,,schwarz,,59.898173105695214,av_experiment,
﻿choice_videos/1_017.mp4,,,,,,5,,,blass,,,,,,Chrome,,,,,,,,,,5,,,test,,2021.1.2,0,left,10,,26,,,,,,,,Win32,,,images/cowboy.png,,5,1920,5,0,,,2021-04-07_10h24.20.769,0,,SESSION,cowboy,,,0,,,,images/radfahrer.png,0.6518899999791756,1,,av_experiment,,Der schöne Radfahrer jagt den blassen Cowboy.,1080,,jagt,,1,,,schön,radfahrer,,,,,2021-04-07_10h24.20.769,,,5,aron,,,,,0,,,wach,,59.898173105695214,av_experiment,
﻿choice_videos/4_040.mp4,,,,,,6,,,klug,,,,,,Chrome,,,,,,,,,,6,,,test,,2021.1.2,400,left,0,,69,,,,,,,,Win32,,,images/roboter.png,,5,1920,5,1,,,2021-04-07_10h24.20.769,1,,SESSION,roboter,,,0,,,,images/drache.png,2.539519999991171,4,,av_experiment,,Den faulen Drachen berührt der kluge Roboter.,1080,,berührt,,1,,,faul,drache,,,,,2021-04-07_10h24.20.769,,,6,aron,,,,,0,,,nass,,59.898173105695214,av_experiment,
﻿choice_videos/2_026.mp4,,,,,,7,,,still,,,,,,Chrome,,,,,,,,,,7,,,test,,2021.1.2,0,left,400,,42,,,,,,,,Win32,,,images/gärtner.png,,5,1920,5,0,,,2021-04-07_10h24.20.769,0,,SESSION,gärtner,,,0,,,,images/maler.png,0.7220100000267848,2,,av_experiment,,Der nette Maler massiert den stillen Gärtner.,1080,,massiert,,1,,,nett,maler,,,,,2021-04-07_10h24.20.769,,,7,aron,,,,,0,,,gut,,59.898173105695214,av_experiment,
﻿choice_videos/3_035.mp4,,,,,,8,,,arm,,,,,,Chrome,,,,,,,,,,8,,,test,,2021.1.2,10,left,0,,58,,,,,,,,Win32,,,images/junge.png,,5,1920,5,0,,,2021-04-07_10h24.20.769,0,,SESSION,junge,,,0,,,,images/lehrer.png,4.84953000000678,3,,av_experiment,,Der nette Lehrer tröstet den armen Jungen.,1080,,tröstet,,1,,,nett,lehrer,,,,,2021-04-07_10h24.20.769,,,8,aron,,,,,0,,,nett,,59.898173105695214,av_experiment,
﻿choice_videos/0_013.mp4,,,,,,9,,,dick,,,,,,Chrome,,,,,,,,,,9,,,test,,2021.1.2,0,right,0,,20,,,,,,,,Win32,,,images/frisör.png,,5,1920,5,0,,,2021-04-07_10h24.20.769,1,,SESSION,frisör,,,0,,,,images/postbote.png,0.889229999971576,0,,av_experiment,,Der stille Postbote grüßt den dicken Frisör.,1080,,grüßt,,1,,,still,postbote,,,,,2021-04-07_10h24.20.769,,,9,aron,,,,,0,,,dick,,59.898173105695214,av_experiment,
﻿choice_videos/2_058.mp4,,,,,,10,,,klein,,,,,,Chrome,,,,,,,,,,10,,,test,,2021.1.2,0,right,400,,102,,,,,,,,Win32,,,images/maulwurf.png,,5,1920,5,0,,,2021-04-07_10h24.20.769,1,,SESSION,maulwurf,,,0,,,,images/koala.png,0.2791200000210665,2,,av_experiment,,Den dicken Koala jagt der kleine Maulwurf.,1080,,jagt,,1,,,dick,koala,,,,,2021-04-07_10h24.20.769,,,10,aron,,,,,0,,,böse,,59.898173105695214,av_experiment,
﻿choice_videos/3_037.mp4,,,,,,11,,,müde,,,,,,Chrome,,,,,,,,,,11,,,test,,2021.1.2,10,left,0,,63,,,,,,,,Win32,,,images/gärtner.png,,5,1920,5,1,,,2021-04-07_10h24.20.769,1,,SESSION,gärtner,,,0,,,,images/maler.png,0.43695499998284504,3,,av_experiment,,Der nette Maler weckt den müden Gärtner.,1080,,weckt,,1,,,nett,maler,,,,,2021-04-07_10h24.20.769,,,11,aron,,,,,0,,,böse,,59.898173105695214,av_experiment,
﻿choice_videos/1_066.mp4,,,,,,12,,,alt,,,,,,Chrome,,,,,,,,,,12,,,test,,2021.1.2,0,right,10,,116,,,,,,,,Win32,,,images/mann.png,,5,1920,5,0,,,2021-04-07_10h24.20.769,1,,SESSION,mann,,,0,,,,images/nikolaus.png,1.2407249999814667,1,,av_experiment,,Den dicken Nikolaus streichelt der alte Mann.,1080,,streichelt,,1,,,dick,nikolaus,,,,,2021-04-07_10h24.20.769,,,12,aron,,,,,0,,,stark,,59.898173105695214,av_experiment,
﻿choice_videos/4_072.mp4,,,,,,13,,,hübsch,,,,,,Chrome,,,,,,,,,,13,,,test,,2021.1.2,400,left,0,,159,,,,,,,,Win32,,,images/bräutigam.png,,5,1920,5,2,,,2021-04-07_10h24.20.769,0,,SESSION,bräutigam,,,0,,,,images/mönch.png,1.442449999973178,4,,av_experiment,,Den dicken Mönch tröstet der hübsche Bräutigam.,1080,,tröstet,,1,,,dick,mönch,,,,,2021-04-07_10h24.20.769,,,13,aron,,,,,0,,,wild,,59.898173105695214,av_experiment,
﻿choice_videos/3_003.mp4,,,,,,14,,,brav,,,,,,Chrome,,,,,,,,,,14,,,test,,2021.1.2,10,left,0,,4,,,,,,,,Win32,,,images/soldat.png,,5,1920,5,1,,,2021-04-07_10h24.20.769,1,,SESSION,soldat,,,0,,,,images/pirat.png,0.26191499998094514,3,,av_experiment,,Der fiese Pirat erschießt den braven Soldaten.,1080,,erschießt,,1,,,fies,pirat,,,,,2021-04-07_10h24.20.769,,,14,aron,,,,,0,,,dick,,59.898173105695214,av_experiment,
﻿choice_videos/4_011.mp4,,,,,,15,,,träge,,,,,,Chrome,,,,,,,,,,15,,,test,,2021.1.2,400,right,0,,144,,,,,,,,Win32,,,images/riese.png,,5,1920,5,2,,,2021-04-07_10h24.20.769,0,,SESSION,riese,,,0,,,,images/zwerg.png,3.375629999965895,4,,av_experiment,,Der flinke Zwerg fesselt den trägen Riesen.,1080,,fesselt,,1,,,flink,zwerg,,,,,2021-04-07_10h24.20.769,,,15,aron,,,,,0,,,stolz,,59.898173105695214,av_experiment,
﻿choice_videos/1_046.mp4,,,,,,16,,,böse,,,,,,Chrome,1.8971400000154972,,,,,,,,,16,,,test,return,2021.1.2,0,right,10,,81,,,,,,,,Win32,,,images/koch.png,,5,1920,5,1,,,2021-04-07_10h24.20.769,0,,SESSION,koch,,,0,,,,images/bäcker.png,2.6386550000170246,1,,av_experiment,,Den faulen Bäcker ersticht der böse Koch.,1080,,ersticht,,1,,,faul,bäcker,,,,,2021-04-07_10h24.20.769,,,16,aron,,,,,0,,,brav,,59.898173105695214,av_experiment,
﻿choice_videos/3_024.mp4,,,,,,17,,,wild,,,,,,Chrome,,,,,,,,,,17,,,test,,2021.1.2,10,right,0,,38,,,,,,,,Win32,,,images/tiger.png,,5,1920,5,0,,,2021-04-07_10h24.20.769,1,,SESSION,tiger,,,0,,,,images/papagei.png,2.456944999983534,3,,av_experiment,,Der bunte Papagei malt den wilden Tiger.,1080,,malt,,1,,,bunt,papagei,,,,,2021-04-07_10h24.20.769,,,17,aron,,,,,0,,,arm,,59.898173105695214,av_experiment,
﻿choice_videos/0_002.mp4,,,,,,18,,,brav,,,,,,Chrome,,,,,,,,,,18,,,test,,2021.1.2,0,left,0,,1,,,,,,,,Win32,,,images/soldat.png,,5,1920,5,0,,,2021-04-07_10h24.20.769,0,,SESSION,soldat,,,0,,,,images/jäger.png,0.923285000026226,0,,av_experiment,,Der blinde Jäger erschießt den braven Soldaten.,1080,,erschießt,,1,,,blind,jäger,,,,,2021-04-07_10h24.20.769,,,18,aron,,,,,0,,,grau,,59.898173105695214,av_experiment,
﻿choice_videos/0_053.mp4,,,,,,19,,,groß,,,,,,Chrome,,,,,,,,,,19,,,test,,2021.1.2,0,right,0,,95,,,,,,,,Win32,,,images/panda.png,,5,1920,5,1,,,2021-04-07_10h24.20.769,0,,SESSION,panda,,,0,,,,images/drache.png,0.34531000000424683,0,,av_experiment,,Den müden Drachen fesselt der große Panda.,1080,,fesselt,,1,,,müde,drache,,,,,2021-04-07_10h24.20.769,,,19,aron,,,,,0,,,dick,,59.898173105695214,av_experiment,
﻿choice_videos/3_012.mp4,,,,,,20,,,süß,,,,,,Chrome,,,,,,,,,,20,,,test,,2021.1.2,10,right,0,,18,,,,,,,,Win32,,,images/koala.png,,5,1920,5,0,,,2021-04-07_10h24.20.769,1,,SESSION,koala,,,0,,,,images/pinguin.png,1.827335000038147,3,,av_experiment,,Der kleine Pinguin filmt den süßen Koala.,1080,,filmt,,1,,,klein,pinguin,,,,,2021-04-07_10h24.20.769,,,20,aron,,,,,0,,,alt,,59.898173105695214,av_experiment,
﻿choice_videos/2_028.mp4,,,,,,21,,,schwach,,,,,,Chrome,,,,,,,,,,21,,,test,,2021.1.2,0,right,400,,47,,,,,,,,Win32,,,images/polizist.png,,5,1920,5,1,,,2021-04-07_10h24.20.769,0,,SESSION,polizist,,,0,,,,images/punker.png,0.28675500000827014,2,,av_experiment,,Der freche Punker schlägt den schwachen Polizisten.,1080,,schlägt,,1,,,frech,punker,,,,,2021-04-07_10h24.20.769,,,21,aron,,,,,0,,,streng,,59.898173105695214,av_experiment,
﻿choice_videos/3_047.mp4,,,,,,22,,,fies,,,,,,Chrome,,,,,,,,,,22,,,test,,2021.1.2,10,right,0,,83,,,,,,,,Win32,,,images/koch.png,,5,1920,5,1,,,2021-04-07_10h24.20.769,0,,SESSION,koch,,,0,,,,images/tourist.png,0.0006000000284984708,3,,av_experiment,,Den armen Touristen ersticht der fiese Koch.,1080,,ersticht,,1,,,arm,tourist,,,,,2021-04-07_10h24.20.769,,,22,aron,,,,,0,,,böse,,59.898173105695214,av_experiment,
﻿choice_videos/1_025.mp4,,,,,,23,,,stolz,,,,,,Chrome,,,,,,,,,,23,,,test,,2021.1.2,0,right,10,,41,,,,,,,,Win32,,,images/tiger.png,,5,1920,5,1,,,2021-04-07_10h24.20.769,0,,SESSION,tiger,,,0,,,,images/bär.png,0.3582600000081584,1,,av_experiment,,Der dicke Bär massiert den stolzen Tiger.,1080,,massiert,,1,,,dick,bär,,,,,2021-04-07_10h24.20.769,,,23,aron,,,,,0,,,stur,,59.898173105695214,av_experiment,
﻿choice_videos/0_027.mp4,,,,,,24,,,brav,,,,,,Chrome,,,,,,,,,,24,,,test,,2021.1.2,0,left,0,,45,,,,,,,,Win32,,,images/soldat.png,,5,1920,5,1,,,2021-04-07_10h24.20.769,1,,SESSION,soldat,,,0,,,,images/räuber.png,0.14236500003607944,0,,av_experiment,,Der böse Räuber schlägt den braven Soldaten.,1080,,schlägt,,1,,,böse,räuber,,,,,2021-04-07_10h24.20.769,,,24,aron,,,,,0,,,böse,,59.898173105695214,av_experiment,
﻿choice_videos/4_004.mp4,,,,,,25,,,böse,,,,,,Chrome,,,,,,,,,,25,,,test,,2021.1.2,400,right,0,,5,,,,,,,,Win32,,,images/koch.png,,5,1920,5,0,,,2021-04-07_10h24.20.769,1,,SESSION,koch,,,0,,,,images/bäcker.png,0.37271500000497326,4,,av_experiment,,Der faule Bäcker ersticht den bösen Koch.,1080,,ersticht,,1,,,faul,bäcker,,,,,2021-04-07_10h24.20.769,,,25,aron,,,,,0,,,alt,,59.898173105695214,av_experiment,
﻿choice_videos/3_063.mp4,,,,,,26,,,bunt,,,,,,Chrome,,,,,,,,,,26,,,test,,2021.1.2,10,right,0,,113,,,,,,,,Win32,,,images/papagei.png,,5,1920,5,1,,,2021-04-07_10h24.20.769,0,,SESSION,papagei,,,0,,,,images/tiger.png,0.3157150000333786,3,,av_experiment,,Den wilden Tiger malt der bunte Papagei.,1080,,malt,,1,,,wild,tiger,,,,,2021-04-07_10h24.20.769,,,26,aron,,,,,0,,,schwer,,59.898173105695214,av_experiment,
﻿choice_videos/0_043.mp4,,,,,,27,,,brav,,,,,,Chrome,,,,,,,,,,27,,,test,,2021.1.2,0,up,0,,75,,,,,,,,Win32,,,images/soldat.png,,5,1920,5,1,,,2021-04-07_10h24.20.769,0,,SESSION,soldat,,,0,,,,images/jäger.png,0.07502500002738088,0,,av_experiment,,Den blinden Jäger erschießt der brave Soldat.,1080,,erschießt,,1,,,blind,jäger,,,,,2021-04-07_10h24.20.769,,,27,aron,,,,,0,,,böse,,59.898173105695214,av_experiment,
﻿choice_videos/2_066.mp4,,,,,,28,,,alt,,,,,,Chrome,,,,,,,,,,28,,,test,,2021.1.2,0,left,400,,117,,,,,,,,Win32,,,images/mann.png,,5,1920,5,1,,,2021-04-07_10h24.20.769,1,,SESSION,mann,,,0,,,,images/nikolaus.png,0.16942499997094274,2,,av_experiment,,Den dicken Nikolaus streichelt der alte Mann.,1080,,streichelt,,1,,,dick,nikolaus,,,,,2021-04-07_10h24.20.769,,,28,aron,,,,,0,,,böse,,59.898173105695214,av_experiment,
﻿choice_videos/3_067.mp4,,,,,,29,,,frech,,,,,,Chrome,,,,,,,,,,29,,,test,,2021.1.2,10,right,0,,118,,,,,,,,Win32,,,images/kasper.png,,5,1920,5,0,,,2021-04-07_10h24.20.769,1,,SESSION,kasper,,,0,,,,images/clown.png,0.4010250000283122,3,,av_experiment,,Den stolzen Clown tadelt der freche Kasper.,1080,,tadelt,,1,,,stolz,clown,,,,,2021-04-07_10h24.20.769,,,29,aron,,,,,0,,,dick,,59.898173105695214,av_experiment,
﻿choice_videos/1_056.mp4,,,,,,30,,,böse,,,,,,Chrome,,,,,,,,,,30,,,test,,2021.1.2,0,left,10,,101,,,,,,,,Win32,,,images/räuber.png,,5,1920,5,1,,,2021-04-07_10h24.20.769,1,,SESSION,räuber,,,0,,,,images/zauberer.png,0.4671049999888055,1,,av_experiment,,Den strengen Zauberer jagt der böse Räuber.,1080,,jagt,,1,,,streng,zauberer,,,,,2021-04-07_10h24.20.769,,,30,aron,,,,,0,,,groß,,59.898173105695214,av_experiment,
﻿choice_videos/0_033.mp4,,,,,,31,,,nass,,,,,,Chrome,,,,,,,,,,31,,,test,,2021.1.2,0,left,0,,55,,,,,,,,Win32,,,images/frosch.png,,5,1920,5,1,,,2021-04-07_10h24.20.769,1,,SESSION,frosch,,,0,,,,images/pinguin.png,1.455004999996163,0,,av_experiment,,Der arme Pinguin tritt den nassen Frosch.,1080,,tritt,,1,,,arm,pinguin,,,,,2021-04-07_10h24.20.769,,,31,aron,,,,,0,,,blind,,59.898173105695214,av_experiment,
﻿choice_videos/0_046.mp4,,,,,,32,,,böse,,,,,,Chrome,2.863725000002887,,,,,,,,,32,,,test,return,2021.1.2,0,right,0,,80,,,,,,,,Win32,,,images/koch.png,,5,1920,5,0,,,2021-04-07_10h24.20.769,1,,SESSION,koch,,,0,,,,images/bäcker.png,0.7214900000253692,0,,av_experiment,,Den faulen Bäcker ersticht der böse Koch.,1080,,ersticht,,1,,,faul,bäcker,,,,,2021-04-07_10h24.20.769,,,32,aron,,,,,0,,,nett,,59.898173105695214,av_experiment,
﻿choice_videos/4_074.mp4,,,,,,33,,,klein,,,,,,Chrome,,,,,,,,,,33,,,test,,2021.1.2,400,right,0,,129,,,,,,,,Win32,,,images/junge.png,,5,1920,5,1,,,2021-04-07_10h24.20.769,0,,SESSION,junge,,,0,,,,images/nikolaus.png,2.284730000013951,4,,av_experiment,,Den dicken Nikolaus umarmt der kleine Junge.,1080,,umarmt,,1,,,dick,nikolaus,,,,,2021-04-07_10h24.20.769,,,33,aron,,,,,0,,,blind,,59.898173105695214,av_experiment,
﻿choice_videos/1_002.mp4,,,,,,34,,,brav,,,,,,Chrome,,,,,,,,,,34,,,test,,2021.1.2,0,right,10,,2,,,,,,,,Win32,,,images/soldat.png,,5,1920,5,1,,,2021-04-07_10h24.20.769,0,,SESSION,soldat,,,0,,,,images/jäger.png,1.4125099999946542,1,,av_experiment,,Der blinde Jäger erschießt den braven Soldaten.,1080,,erschießt,,1,,,blind,jäger,,,,,2021-04-07_10h24.20.769,,,34,aron,,,,,0,,,brav,,59.898173105695214,av_experiment,
﻿choice_videos/4_071.mp4,,,,,,35,,,nett,,,,,,Chrome,,,,,,,,,,35,,,test,,2021.1.2,400,right,0,,124,,,,,,,,Win32,,,images/lehrer.png,,5,1920,5,0,,,2021-04-07_10h24.20.769,1,,SESSION,lehrer,,,0,,,,images/junge.png,0.28484500001650304,4,,av_experiment,,Den armen Jungen tröstet der nette Lehrer.,1080,,tröstet,,1,,,arm,junge,,,,,2021-04-07_10h24.20.769,,,35,aron,,,,,0,,,klug,,59.898173105695214,av_experiment,
﻿choice_videos/0_065.mp4,,,,,,36,,,lahm,,,,,,Chrome,,,,,,,,,,36,,,test,,2021.1.2,0,right,0,,155,,,,,,,,Win32,,,images/bauer.png,,5,1920,5,2,,,2021-04-07_10h24.20.769,0,,SESSION,bauer,,,0,,,,images/tourist.png,0.6296399999991991,0,,av_experiment,,Den starken Touristen schubst der lahme Bauer.,1080,,schubst,,1,,,stark,tourist,,,,,2021-04-07_10h24.20.769,,,36,aron,,,,,0,,,süß,,59.898173105695214,av_experiment,
﻿choice_videos/3_018.mp4,,,,,,37,,,lieb,,,,,,Chrome,,,,,,,,,,37,,,test,,2021.1.2,10,right,0,,148,,,,,,,,Win32,,,images/vater.png,,5,1920,5,2,,,2021-04-07_10h24.20.769,0,,SESSION,vater,,,0,,,,images/junge.png,1.8896050000330433,3,,av_experiment,,Der süße Junge küsst den lieben Vater.,1080,,küsst,,1,,,süß,junge,,,,,2021-04-07_10h24.20.769,,,37,aron,,,,,0,,,flink,,59.898173105695214,av_experiment,
﻿choice_videos/4_057.mp4,,,,,,38,,,rüde,,,,,,Chrome,,,,,,,,,,38,,,test,,2021.1.2,400,up,0,,154,,,,,,,,Win32,,,images/cowboy.png,,5,1920,5,2,,,2021-04-07_10h24.20.769,1,,SESSION,cowboy,,,0,,,,images/kobold.png,0.2170250000199303,4,,av_experiment,,Den frechen Kobold jagt der rüde Cowboy.,1080,,jagt,,1,,,frech,kobold,,,,,2021-04-07_10h24.20.769,,,38,aron,,,,,0,,,blind,,59.898173105695214,av_experiment,
﻿choice_videos/2_076.mp4,,,,,,39,,,lahm,,,,,,Chrome,,,,,,,,,,39,,,test,,2021.1.2,0,right,400,,132,,,,,,,,Win32,,,images/elch.png,,5,1920,5,0,,,2021-04-07_10h24.20.769,1,,SESSION,elch,,,0,,,,images/elefant.png,0.2887699999846518,2,,av_experiment,,Den schnellen Elefanten verfolgt der lahme Elch.,1080,,verfolgt,,1,,,schnell,elefant,,,,,2021-04-07_10h24.20.769,,,39,aron,,,,,0,,,böse,,59.898173105695214,av_experiment,
﻿choice_videos/0_038.mp4,,,,,,40,,,still,,,,,,Chrome,,,,,,,,,,40,,,test,,2021.1.2,0,right,0,,65,,,,,,,,Win32,,,images/roboter.png,,5,1920,5,1,,,2021-04-07_10h24.20.769,0,,SESSION,roboter,,,0,,,,images/bär.png,1.3435749999480322,0,,av_experiment,,Der große Bär weckt den stillen Roboter.,1080,,weckt,,1,,,groß,bär,,,,,2021-04-07_10h24.20.769,,,40,aron,,,,,0,,,fies,,59.898173105695214,av_experiment,
﻿choice_videos/4_009.mp4,,,,,,41,,,groß,,,,,,Chrome,,,,,,,,,,41,,,test,,2021.1.2,400,right,0,,14,,,,,,,,Win32,,,images/zauberer.png,,5,1920,5,0,,,2021-04-07_10h24.20.769,1,,SESSION,zauberer,,,0,,,,images/kasper.png,0.29011000000173226,4,,av_experiment,,Der blinde Kasper fesselt den großen Zauberer.,1080,,fesselt,,1,,,blind,kasper,,,,,2021-04-07_10h24.20.769,,,41,aron,,,,,0,,,süß,,59.898173105695214,av_experiment,
﻿choice_videos/2_003.mp4,,,,,,42,,,brav,,,,,,Chrome,,,,,,,,,,42,,,test,,2021.1.2,0,left,400,,3,,,,,,,,Win32,,,images/soldat.png,,5,1920,5,0,,,2021-04-07_10h24.20.769,0,,SESSION,soldat,,,0,,,,images/pirat.png,0.3833749999757856,2,,av_experiment,,Der fiese Pirat erschießt den braven Soldaten.,1080,,erschießt,,1,,,fies,pirat,,,,,2021-04-07_10h24.20.769,,,42,aron,,,,,0,,,schwarz,,59.898173105695214,av_experiment,
﻿choice_videos/0_075.mp4,,,,,,43,,,dick,,,,,,Chrome,,,,,,,,,,43,,,test,,2021.1.2,0,right,0,,130,,,,,,,,Win32,,,images/postbote.png,,5,1920,5,0,,,2021-04-07_10h24.20.769,1,,SESSION,postbote,,,0,,,,images/boxer.png,0.6146400000434369,0,,av_experiment,,Den schweren Boxer verfolgt der dicke Postbote.,1080,,verfolgt,,1,,,schwer,boxer,,,,,2021-04-07_10h24.20.769,,,43,aron,,,,,0,,,dick,,59.898173105695214,av_experiment,
﻿choice_videos/3_068.mp4,,,,,,44,,,böse,,,,,,Chrome,,,,,,,,,,44,,,test,,2021.1.2,10,up,0,,158,,,,,,,,Win32,,,images/zauberer.png,,5,1920,5,2,,,2021-04-07_10h24.20.769,1,,SESSION,zauberer,,,0,,,,images/kobold.png,0.171535000030417,3,,av_experiment,,Den frechen Kobold tadelt der böse Zauberer.,1080,,tadelt,,1,,,frech,kobold,,,,,2021-04-07_10h24.20.769,,,44,aron,,,,,0,,,böse,,59.898173105695214,av_experiment,
﻿choice_videos/2_070.mp4,,,,,,45,,,jung,,,,,,Chrome,,,,,,,,,,45,,,test,,2021.1.2,0,right,400,,122,,,,,,,,Win32,,,images/prinz.png,,5,1920,5,0,,,2021-04-07_10h24.20.769,1,,SESSION,prinz,,,0,,,,images/könig.png,0.13685000000987202,2,,av_experiment,,Den alten König tröstet der junge Prinz.,1080,,tröstet,,1,,,alt,könig,,,,,2021-04-07_10h24.20.769,,,45,aron,,,,,0,,,müde,,59.898173105695214,av_experiment,
﻿choice_videos/4_064.mp4,,,,,,46,,,böse,,,,,,Chrome,,,,,,,,,,46,,,test,,2021.1.2,400,right,0,,114,,,,,,,,Win32,,,images/räuber.png,,5,1920,5,0,,,2021-04-07_10h24.20.769,1,,SESSION,räuber,,,0,,,,images/soldat.png,0.30456999997841194,4,,av_experiment,,Den braven Soldaten schlägt der böse Räuber.,1080,,schlägt,,1,,,brav,soldat,,,,,2021-04-07_10h24.20.769,,,46,aron,,,,,0,,,stur,,59.898173105695214,av_experiment,
﻿choice_videos/0_048.mp4,,,,,,47,,,böse,,,,,,Chrome,,,,,,,,,,47,,,test,,2021.1.2,0,right,0,,85,,,,,,,,Win32,,,images/gärtner.png,,5,1920,5,1,,,2021-04-07_10h24.20.769,0,,SESSION,gärtner,,,0,,,,images/postbote.png,0.57523499999661,0,,av_experiment,,Den dreisten Postboten erwürgt der böse Gärtner.,1080,,erwürgt,,1,,,dreist,postbote,,,,,2021-04-07_10h24.20.769,,,47,aron,,,,,0,,,blind,,59.898173105695214,av_experiment,
﻿choice_videos/3_040.mp4,,,,,,48,,,klug,,,,,,Chrome,2.48076000000583,,,,,,,,,48,,,test,return,2021.1.2,10,left,0,,68,,,,,,,,Win32,,,images/roboter.png,,5,1920,5,0,,,2021-04-07_10h24.20.769,0,,SESSION,roboter,,,0,,,,images/drache.png,0.11767500004498288,3,,av_experiment,,Den faulen Drachen berührt der kluge Roboter.,1080,,berührt,,1,,,faul,drache,,,,,2021-04-07_10h24.20.769,,,48,aron,,,,,0,,,faul,,59.898173105695214,av_experiment,
﻿choice_videos/1_013.mp4,,,,,,49,,,dick,,,,,,Chrome,,,,,,,,,,49,,,test,,2021.1.2,0,left,10,,21,,,,,,,,Win32,,,images/frisör.png,,5,1920,5,1,,,2021-04-07_10h24.20.769,1,,SESSION,frisör,,,0,,,,images/postbote.png,1.7577300000120886,1,,av_experiment,,Der stille Postbote grüßt den dicken Frisör.,1080,,grüßt,,1,,,still,postbote,,,,,2021-04-07_10h24.20.769,,,49,aron,,,,,0,,,frech,,59.898173105695214,av_experiment,
﻿choice_videos/4_019.mp4,,,,,,50,,,gut,,,,,,Chrome,,,,,,,,,,50,,,test,,2021.1.2,400,left,0,,29,,,,,,,,Win32,,,images/soldat.png,,5,1920,5,1,,,2021-04-07_10h24.20.769,1,,SESSION,soldat,,,0,,,,images/papst.png,1.6260849999962375,4,,av_experiment,,Der nette Papst küsst den guten Soldaten.,1080,,küsst,,1,,,nett,papst,,,,,2021-04-07_10h24.20.769,,,50,aron,,,,,0,,,streng,,59.898173105695214,av_experiment,
﻿choice_videos/0_036.mp4,,,,,,51,,,blass,,,,,,Chrome,,,,,,,,,,51,,,test,,2021.1.2,0,up,0,,60,,,,,,,,Win32,,,images/tourist.png,,5,1920,5,0,,,2021-04-07_10h24.20.769,0,,SESSION,tourist,,,0,,,,images/maler.png,3.026884999999311,0,,av_experiment,,Der flinke Maler verfolgt den blassen Touristen.,1080,,verfolgt,,1,,,flink,maler,,,,,2021-04-07_10h24.20.769,,,51,aron,,,,,0,,,alt,,59.898173105695214,av_experiment,
﻿choice_videos/4_022.mp4,,,,,,52,,,alt,,,,,,Chrome,,,,,,,,,,52,,,test,,2021.1.2,400,up,0,,34,,,,,,,,Win32,,,images/löwe.png,,5,1920,5,0,,,2021-04-07_10h24.20.769,0,,SESSION,löwe,,,0,,,,images/esel.png,2.0283049999852665,4,,av_experiment,,Der sture Esel malt den alten Löwen.,1080,,malt,,1,,,stur,esel,,,,,2021-04-07_10h24.20.769,,,52,aron,,,,,0,,,schlau,,59.898173105695214,av_experiment,
﻿choice_videos/1_016.mp4,,,,,,53,,,frech,,,,,,Chrome,,,,,,,,,,53,,,test,,2021.1.2,0,up,10,,146,,,,,,,,Win32,,,images/kobold.png,,5,1920,5,2,,,2021-04-07_10h24.20.769,1,,SESSION,kobold,,,0,,,,images/cowboy.png,0.890030000009574,1,,av_experiment,,Der rüde Cowboy jagt den frechen Kobold.,1080,,jagt,,1,,,rüde,cowboy,,,,,2021-04-07_10h24.20.769,,,53,aron,,,,,0,,,still,,59.898173105695214,av_experiment,
﻿choice_videos/2_031.mp4,,,,,,54,,,dick,,,,,,Chrome,,,,,,,,,,54,,,test,,2021.1.2,0,up,400,,52,,,,,,,,Win32,,,images/ritter.png,,5,1920,5,0,,,2021-04-07_10h24.20.769,0,,SESSION,ritter,,,0,,,,images/wikinger.png,0.607674999977462,2,,av_experiment,,Der böse Wikinger streichelt den dicken Ritter.,1080,,streichelt,,1,,,böse,wikinger,,,,,2021-04-07_10h24.20.769,,,54,aron,,,,,0,,,frech,,59.898173105695214,av_experiment,
﻿choice_videos/0_064.mp4,,,,,,55,,,böse,,,,,,Chrome,,,,,,,,,,55,,,test,,2021.1.2,0,left,0,,115,,,,,,,,Win32,,,images/räuber.png,,5,1920,5,1,,,2021-04-07_10h24.20.769,1,,SESSION,räuber,,,0,,,,images/soldat.png,0.29764000000432134,0,,av_experiment,,Den braven Soldaten schlägt der böse Räuber.,1080,,schlägt,,1,,,brav,soldat,,,,,2021-04-07_10h24.20.769,,,55,aron,,,,,0,,,groß,,59.898173105695214,av_experiment,
﻿choice_videos/2_060.mp4,,,,,,56,,,scheu,,,,,,Chrome,,,,,,,,,,56,,,test,,2021.1.2,0,right,400,,107,,,,,,,,Win32,,,images/maulwurf.png,,5,1920,5,1,,,2021-04-07_10h24.20.769,0,,SESSION,maulwurf,,,0,,,,images/hase.png,2.0192600000300445,2,,av_experiment,,Den kranken Hasen küsst der scheue Maulwurf.,1080,,küsst,,1,,,krank,hase,,,,,2021-04-07_10h24.20.769,,,56,aron,,,,,0,,,arm,,59.898173105695214,av_experiment,
﻿choice_videos/0_016.mp4,,,,,,57,,,frech,,,,,,Chrome,,,,,,,,,,57,,,test,,2021.1.2,0,up,0,,145,,,,,,,,Win32,,,images/kobold.png,,5,1920,5,2,,,2021-04-07_10h24.20.769,1,,SESSION,kobold,,,0,,,,images/cowboy.png,0.253400000045076,0,,av_experiment,,Der rüde Cowboy jagt den frechen Kobold.,1080,,jagt,,1,,,rüde,cowboy,,,,,2021-04-07_10h24.20.769,,,57,aron,,,,,0,,,fies,,59.898173105695214,av_experiment,
﻿choice_videos/3_021.mp4,,,,,,58,,,klein,,,,,,Chrome,,,,,,,,,,58,,,test,,2021.1.2,10,up,0,,33,,,,,,,,Win32,,,images/koala.png,,5,1920,5,1,,,2021-04-07_10h24.20.769,0,,SESSION,koala,,,0,,,,images/panda.png,0.7888350000139326,3,,av_experiment,,Der dicke Panda malt den kleinen Koala.,1080,,malt,,1,,,dick,panda,,,,,2021-04-07_10h24.20.769,,,58,aron,,,,,0,,,böse,,59.898173105695214,av_experiment,
﻿choice_videos/4_012.mp4,,,,,,59,,,süß,,,,,,Chrome,,,,,,,,,,59,,,test,,2021.1.2,400,right,0,,19,,,,,,,,Win32,,,images/koala.png,,5,1920,5,1,,,2021-04-07_10h24.20.769,0,,SESSION,koala,,,0,,,,images/pinguin.png,0.26735000003827736,4,,av_experiment,,Der kleine Pinguin filmt den süßen Koala.,1080,,filmt,,1,,,klein,pinguin,,,,,2021-04-07_10h24.20.769,,,59,aron,,,,,0,,,süß,,59.898173105695214,av_experiment,
﻿choice_videos/2_068.mp4,,,,,,60,,,böse,,,,,,Chrome,,,,,,,,,,60,,,test,,2021.1.2,0,right,400,,157,,,,,,,,Win32,,,images/zauberer.png,,5,1920,5,2,,,2021-04-07_10h24.20.769,0,,SESSION,zauberer,,,0,,,,images/kobold.png,1.378020000003744,2,,av_experiment,,Den frechen Kobold tadelt der böse Zauberer.,1080,,tadelt,,1,,,frech,kobold,,,,,2021-04-07_10h24.20.769,,,60,aron,,,,,0,,,streng,,59.898173105695214,av_experiment,
﻿choice_videos/3_029.mp4,,,,,,61,,,blind,,,,,,Chrome,,,,,,,,,,61,,,test,,2021.1.2,10,right,0,,48,,,,,,,,Win32,,,images/wikinger.png,,5,1920,5,0,,,2021-04-07_10h24.20.769,1,,SESSION,wikinger,,,0,,,,images/koch.png,1.487639999948442,3,,av_experiment,,Der starke Koch schubst den blinden Wikinger.,1080,,schubst,,1,,,stark,koch,,,,,2021-04-07_10h24.20.769,,,61,aron,,,,,0,,,schwer,,59.898173105695214,av_experiment,
﻿choice_videos/1_054.mp4,,,,,,62,,,klug,,,,,,Chrome,,,,,,,,,,62,,,test,,2021.1.2,0,right,10,,96,,,,,,,,Win32,,,images/pinguin.png,,5,1920,5,0,,,2021-04-07_10h24.20.769,1,,SESSION,pinguin,,,0,,,,images/koala.png,1.0884250000235625,1,,av_experiment,,Den süßen Koala filmt der kleine Pinguin.,1080,,filmt,,1,,,süß,koala,,,,,2021-04-07_10h24.20.769,,,62,aron,,,,,0,,,klug,,59.898173105695214,av_experiment,
﻿choice_videos/0_059.mp4,,,,,,63,,,gut,,,,,,Chrome,,,,,,,,,,63,,,test,,2021.1.2,0,right,0,,105,,,,,,,,Win32,,,images/soldat.png,,5,1920,5,1,,,2021-04-07_10h24.20.769,0,,SESSION,soldat,,,0,,,,images/papst.png,1.7873900000122376,0,,av_experiment,,Den netten Papst küsst der gute Soldat.,1080,,küsst,,1,,,nett,papst,,,,,2021-04-07_10h24.20.769,,,63,aron,,,,,0,,,süß,,59.898173105695214,av_experiment,
﻿choice_videos/4_048.mp4,,,,,,64,,,böse,,,,,,Chrome,1.2782699999515899,,,,,,,,,64,,,test,return,2021.1.2,400,right,0,,84,,,,,,,,Win32,,,images/gärtner.png,,5,1920,5,0,,,2021-04-07_10h24.20.769,1,,SESSION,gärtner,,,0,,,,images/postbote.png,0.2596800000173971,4,,av_experiment,,Den dreisten Postboten erwürgt der böse Gärtner.,1080,,erwürgt,,1,,,dreist,postbote,,,,,2021-04-07_10h24.20.769,,,64,aron,,,,,0,,,schwer,,59.898173105695214,av_experiment,
﻿choice_videos/1_044.mp4,,,,,,65,,,brav,,,,,,Chrome,,,,,,,,,,65,,,test,,2021.1.2,0,right,10,,76,,,,,,,,Win32,,,images/polizist.png,,5,1920,5,0,,,2021-04-07_10h24.20.769,1,,SESSION,polizist,,,0,,,,images/jäger.png,2.0070399999967776,1,,av_experiment,,Den bösen Jäger erschießt der brave Polizist.,1080,,erschießt,,1,,,böse,jäger,,,,,2021-04-07_10h24.20.769,,,65,aron,,,,,0,,,nett,,59.898173105695214,av_experiment,
﻿choice_videos/3_070.mp4,,,,,,66,,,jung,,,,,,Chrome,,,,,,,,,,66,,,test,,2021.1.2,10,right,0,,123,,,,,,,,Win32,,,images/prinz.png,,5,1920,5,1,,,2021-04-07_10h24.20.769,0,,SESSION,prinz,,,0,,,,images/könig.png,1.7781400000094436,3,,av_experiment,,Den alten König tröstet der junge Prinz.,1080,,tröstet,,1,,,alt,könig,,,,,2021-04-07_10h24.20.769,,,66,aron,,,,,0,,,taub,,59.898173105695214,av_experiment,
﻿choice_videos/1_078.mp4,,,,,,67,,,blind,,,,,,Chrome,,,,,,,,,,67,,,test,,2021.1.2,0,right,10,,136,,,,,,,,Win32,,,images/maler.png,,5,1920,5,0,,,2021-04-07_10h24.20.769,1,,SESSION,maler,,,0,,,,images/kasper.png,0.1354200000059791,1,,av_experiment,,Den braven Kasper weckt der blinde Maler.,1080,,weckt,,1,,,brav,kasper,,,,,2021-04-07_10h24.20.769,,,67,aron,,,,,0,,,schwarz,,59.898173105695214,av_experiment,
﻿choice_videos/3_019.mp4,,,,,,68,,,gut,,,,,,Chrome,,,,,,,,,,68,,,test,,2021.1.2,10,right,0,,28,,,,,,,,Win32,,,images/soldat.png,,5,1920,5,0,,,2021-04-07_10h24.20.769,1,,SESSION,soldat,,,0,,,,images/papst.png,2.2711750000016764,3,,av_experiment,,Der nette Papst küsst den guten Soldaten.,1080,,küsst,,1,,,nett,papst,,,,,2021-04-07_10h24.20.769,,,68,aron,,,,,0,,,wach,,59.898173105695214,av_experiment,
﻿choice_videos/2_037.mp4,,,,,,69,,,müde,,,,,,Chrome,,,,,,,,,,69,,,test,,2021.1.2,0,right,400,,62,,,,,,,,Win32,,,images/gärtner.png,,5,1920,5,0,,,2021-04-07_10h24.20.769,1,,SESSION,gärtner,,,0,,,,images/maler.png,0.8555899999919347,2,,av_experiment,,Der nette Maler weckt den müden Gärtner.,1080,,weckt,,1,,,nett,maler,,,,,2021-04-07_10h24.20.769,,,69,aron,,,,,0,,,nett,,59.898173105695214,av_experiment,
﻿choice_videos/1_007.mp4,,,,,,70,,,müde,,,,,,Chrome,,,,,,,,,,70,,,test,,2021.1.2,0,right,10,,11,,,,,,,,Win32,,,images/elch.png,,5,1920,5,1,,,2021-04-07_10h24.20.769,0,,SESSION,elch,,,0,,,,images/elefant.png,0.3372549999621697,1,,av_experiment,,Der taube Elefant fängt den müden Elch.,1080,,fängt,,1,,,taub,elefant,,,,,2021-04-07_10h24.20.769,,,70,aron,,,,,0,,,böse,,59.898173105695214,av_experiment,
﻿choice_videos/2_039.mp4,,,,,,71,,,blind,,,,,,Chrome,,,,,,,,,,71,,,test,,2021.1.2,0,right,400,,67,,,,,,,,Win32,,,images/maler.png,,5,1920,5,1,,,2021-04-07_10h24.20.769,0,,SESSION,maler,,,0,,,,images/kasper.png,0.4867550000199117,2,,av_experiment,,Der brave Kasper weckt den blinden Maler.,1080,,weckt,,1,,,brav,kasper,,,,,2021-04-07_10h24.20.769,,,71,aron,,,,,0,,,stur,,59.898173105695214,av_experiment,
﻿choice_videos/1_023.mp4,,,,,,72,,,gut,,,,,,Chrome,,,,,,,,,,72,,,test,,2021.1.2,0,right,10,,36,,,,,,,,Win32,,,images/drache.png,,5,1920,5,0,,,2021-04-07_10h24.20.769,1,,SESSION,drache,,,0,,,,images/büffel.png,0.01848000002792105,1,,av_experiment,,Der große Büffel malt den guten Drachen.,1080,,malt,,1,,,groß,büffel,,,,,2021-04-07_10h24.20.769,,,72,aron,,,,,0,,,alt,,59.898173105695214,av_experiment,
﻿choice_videos/3_042.mp4,,,,,,73,,,alt,,,,,,Chrome,,,,,,,,,,73,,,test,,2021.1.2,10,left,0,,73,,,,,,,,Win32,,,images/metzger.png,,5,1920,5,1,,,2021-04-07_10h24.20.769,1,,SESSION,metzger,,,0,,,,images/lehrer.png,0.28571999998530373,3,,av_experiment,,Den guten Lehrer beschattet der alte Metzger.,1080,,beschattet,,1,,,gut,lehrer,,,,,2021-04-07_10h24.20.769,,,73,aron,,,,,0,,,alt,,59.898173105695214,av_experiment,
﻿choice_videos/1_039.mp4,,,,,,74,,,blind,,,,,,Chrome,,,,,,,,,,74,,,test,,2021.1.2,0,right,10,,66,,,,,,,,Win32,,,images/maler.png,,5,1920,5,0,,,2021-04-07_10h24.20.769,1,,SESSION,maler,,,0,,,,images/kasper.png,0.3912150000105612,1,,av_experiment,,Der brave Kasper weckt den blinden Maler.,1080,,weckt,,1,,,brav,kasper,,,,,2021-04-07_10h24.20.769,,,74,aron,,,,,0,,,brav,,59.898173105695214,av_experiment,
﻿choice_videos/4_035.mp4,,,,,,75,,,arm,,,,,,Chrome,,,,,,,,,,75,,,test,,2021.1.2,400,right,0,,59,,,,,,,,Win32,,,images/junge.png,,5,1920,5,1,,,2021-04-07_10h24.20.769,0,,SESSION,junge,,,0,,,,images/lehrer.png,0.010210000036749989,4,,av_experiment,,Der nette Lehrer tröstet den armen Jungen.,1080,,tröstet,,1,,,nett,lehrer,,,,,2021-04-07_10h24.20.769,,,75,aron,,,,,0,,,dick,,59.898173105695214,av_experiment,
﻿choice_videos/0_072.mp4,,,,,,76,,,hübsch,,,,,,Chrome,,,,,,,,,,76,,,test,,2021.1.2,0,up,0,,160,,,,,,,,Win32,,,images/bräutigam.png,,5,1920,5,2,,,2021-04-07_10h24.20.769,1,,SESSION,bräutigam,,,0,,,,images/mönch.png,0.08286999998381361,0,,av_experiment,,Den dicken Mönch tröstet der hübsche Bräutigam.,1080,,tröstet,,1,,,dick,mönch,,,,,2021-04-07_10h24.20.769,,,76,aron,,,,,0,,,böse,,59.898173105695214,av_experiment,
﻿choice_videos/2_049.mp4,,,,,,77,,,stur,,,,,,Chrome,,,,,,,,,,77,,,test,,2021.1.2,0,right,400,,87,,,,,,,,Win32,,,images/koch.png,,5,1920,5,1,,,2021-04-07_10h24.20.769,0,,SESSION,koch,,,0,,,,images/zauberer.png,0.316274999990128,2,,av_experiment,,Den schwarzen Zauberer erwürgt der sture Koch.,1080,,erwürgt,,1,,,schwarz,zauberer,,,,,2021-04-07_10h24.20.769,,,77,aron,,,,,0,,,fies,,59.898173105695214,av_experiment,
﻿choice_videos/1_010.mp4,,,,,,78,,,groß,,,,,,Chrome,,,,,,,,,,78,,,test,,2021.1.2,0,right,10,,16,,,,,,,,Win32,,,images/panda.png,,5,1920,5,0,,,2021-04-07_10h24.20.769,1,,SESSION,panda,,,0,,,,images/drache.png,0.12388999998802319,1,,av_experiment,,Der müde Drache fesselt den großen Panda.,1080,,fesselt,,1,,,müde,drache,,,,,2021-04-07_10h24.20.769,,,78,aron,,,,,0,,,grau,,59.898173105695214,av_experiment,
﻿choice_videos/2_054.mp4,,,,,,79,,,klug,,,,,,Chrome,,,,,,,,,,79,,,test,,2021.1.2,0,right,400,,97,,,,,,,,Win32,,,images/pinguin.png,,5,1920,5,1,,,2021-04-07_10h24.20.769,0,,SESSION,pinguin,,,0,,,,images/koala.png,0.1890700000221841,2,,av_experiment,,Den süßen Koala filmt der kleine Pinguin.,1080,,filmt,,1,,,süß,koala,,,,,2021-04-07_10h24.20.769,,,79,aron,,,,,0,,,still,,59.898173105695214,av_experiment,
﻿sj_videos/4_082.mp4,,,1,,,,0,,,,,left,,0.2830200000316836,Chrome,,0,,,,,,,,,,return,test,,2021.1.2,400,,0,1,1,2.0968449999927543,,,,,,0,Win32,,,,,5,1920,5,,,,2021-04-07_10h24.20.769,,,SESSION,,,,,,,0,,,4,,av_experiment,,"Der Punker, der die Maler beschattet, niest.",1080,,,,,1,,,,,,,right,2021-04-07_10h24.20.769,,4.100485000002664,,aron,,,,,0,,,,,59.898173105695214,av_experiment,
﻿sj_videos/1_089.mp4,,,1,,,,7,,,,,left,,0.22417499998118728,Chrome,,1,,,,,,,,,,,test,,2021.1.2,0,,10,0,8,0.7100349999964237,,,,,,1,Win32,,,,,5,1920,5,,,,2021-04-07_10h24.20.769,,,SESSION,,,,,,,0,,,1,,av_experiment,,"Der Bräutigam, der die Riesen ersticht, lacht.",1080,,,,,0,,,,,,,right,2021-04-07_10h24.20.769,,,,aron,,,,,0,,,,,59.898173105695214,av_experiment,
﻿sj_videos/1_084.mp4,,,1,,,,2,,,,,right,,0.2267050000373274,Chrome,,2,,,,,,,,,,,test,,2021.1.2,0,,10,1,3,0.9423600000445731,,,,,,2,Win32,,,,,5,1920,5,,,,2021-04-07_10h24.20.769,,,SESSION,,,,,,,0,,,1,,av_experiment,,"Der Lehrer, der die Models bestiehlt, zittert.",1080,,,,,1,,,,,,,left,2021-04-07_10h24.20.769,,,,aron,,,,,0,,,,,59.898173105695214,av_experiment,
﻿sj_videos/0_083.mp4,,,1,,,,1,,,,,right,,0.14447499997913837,Chrome,,3,,,,,,,,,,,test,,2021.1.2,0,,0,1,2,1.3007749999524094,,,,,,3,Win32,,,,,5,1920,5,,,,2021-04-07_10h24.20.769,,,SESSION,,,,,,,0,,,0,,av_experiment,,"Der Maler, der die Vampire beschattet, gähnt.",1080,,,,,1,,,,,,,right,2021-04-07_10h24.20.769,,,,aron,,,,,0,,,,,59.898173105695214,av_experiment,
﻿sj_videos/3_086.mp4,,,1,,,,4,,,,,right,,0.20843499997863546,Chrome,,4,,,,,,,,,,,test,,2021.1.2,10,,0,1,5,0.7122399999643676,,,,,,4,Win32,,,,,5,1920,5,,,,2021-04-07_10h24.20.769,,,SESSION,,,,,,,0,,,3,,av_experiment,,"Der Frisör, der die Bäcker erschießt, niest.",1080,,,,,0,,,,,,,right,2021-04-07_10h24.20.769,,,,aron,,,,,0,,,,,59.898173105695214,av_experiment,
﻿sj_videos/0_088.mp4,,,1,,,,6,,,,,right,,0.22366999997757375,Chrome,,5,,,,,,,,,,,test,,2021.1.2,0,,0,0,7,0.4445699999923818,,,,,,5,Win32,,,,,5,1920,5,,,,2021-04-07_10h24.20.769,,,SESSION,,,,,,,0,,,0,,av_experiment,,"Der Koch, der die Touristinnen erschießt, niest.",1080,,,,,1,,,,,,,left,2021-04-07_10h24.20.769,,,,aron,,,,,0,,,,,59.898173105695214,av_experiment,
﻿sj_videos/4_087.mp4,,,1,,,,5,,,,,left,,0.31205000000773,Chrome,,6,,,,,,,,,,,test,,2021.1.2,400,,0,1,6,0.9390850000199862,,,,,,6,Win32,,,,,5,1920,5,,,,2021-04-07_10h24.20.769,,,SESSION,,,,,,,0,,,4,,av_experiment,,"Der Frisör, der die Köchinnen erschießt, grinst.",1080,,,,,1,,,,,,,right,2021-04-07_10h24.20.769,,,,aron,,,,,0,,,,,59.898173105695214,av_experiment,
﻿sj_videos/2_090.mp4,,,1,,,,8,,,,,right,,0.28423500002827495,Chrome,,7,,,,,,,,,,,test,,2021.1.2,0,,400,1,9,0.9204449999961071,,,,,,7,Win32,,,,,5,1920,5,,,,2021-04-07_10h24.20.769,,,SESSION,,,,,,,0,,,2,,av_experiment,,"Der Maler, der die Witwen ersticht, zittert.",1080,,,,,1,,,,,,,left,2021-04-07_10h24.20.769,,,,aron,,,,,0,,,,,59.898173105695214,av_experiment,
﻿sj_videos/3_091.mp4,,,1,,,,9,,,,,right,,0.16074500000104308,Chrome,,8,,,,,,,,,,,test,,2021.1.2,10,,0,1,10,0.2917800000286661,,,,,,8,Win32,,,,,5,1920,5,,,,2021-04-07_10h24.20.769,,,SESSION,,,,,,,0,,,3,,av_experiment,,"Der Richter, der die Radfahrer erwürgt, weint.",1080,,,,,0,,,,,,,right,2021-04-07_10h24.20.769,,,,aron,,,,,0,,,,,59.898173105695214,av_experiment,
﻿sj_videos/2_085.mp4,,,1,,,,3,,,,,left,,0.17399500001920387,Chrome,,9,,,,,,,,,,,test,,2021.1.2,0,,400,0,4,0.5499699999927543,,,,,,9,Win32,,,,,5,1920,5,,,,2021-04-07_10h24.20.769,,,SESSION,,,,,,,0,,,2,,av_experiment,,"Der Mönch, der die Astronauten erschießt, lacht.",1080,,,,,0,,,,,,,right,2021-04-07_10h24.20.769,,,,aron,,,,,0,,,,,59.898173105695214,av_experiment,
﻿,0,,,,,,,,,,0,,,,Chrome,,,,0,,,,,,,,,test,,2021.1.2,,,,,,,1,,,,,,Win32,,,,,5,1920,5,,,,2021-04-07_10h24.20.769,,,SESSION,,,,,0,,,,,,,av_experiment,,,1080,,,,,,,,,,,,,2021-04-07_10h24.20.769,,,,aron,,,,,0,,,,,59.898173105695214,av_experiment,
﻿choice_videos/3_014.mp4,,,,,,80,,,laut,,,,,,Chrome,24.6638699999894,,,,,,,,,80,,,test,return,2021.1.2,10,right,0,,23,,,,,,,,Win32,,,images/tourist.png,,5,1920,5,1,,,2021-04-07_10h24.20.769,0,,SESSION,tourist,,,0,,,,images/ritter.png,4.226740000012796,3,,av_experiment,,Der müde Ritter interviewt den lauten Touristen.,1080,,interviewt,,1,,,müde,ritter,,,,,2021-04-07_10h24.20.769,,,80,aron,,,,,0,,,arm,,59.898173105695214,av_experiment,
﻿choice_videos/4_024.mp4,,,,,,81,,,wild,,,,,,Chrome,,,,,,,,,,81,,,test,,2021.1.2,400,left,0,,39,,,,,,,,Win32,,,images/tiger.png,,5,1920,5,1,,,2021-04-07_10h24.20.769,1,,SESSION,tiger,,,0,,,,images/papagei.png,3.1349650000338443,4,,av_experiment,,Der bunte Papagei malt den wilden Tiger.,1080,,malt,,1,,,bunt,papagei,,,,,2021-04-07_10h24.20.769,,,81,aron,,,,,0,,,böse,,59.898173105695214,av_experiment,
﻿choice_videos/1_075.mp4,,,,,,82,,,dick,,,,,,Chrome,,,,,,,,,,82,,,test,,2021.1.2,0,left,10,,131,,,,,,,,Win32,,,images/postbote.png,,5,1920,5,1,,,2021-04-07_10h24.20.769,1,,SESSION,postbote,,,0,,,,images/boxer.png,0.3682799999951385,1,,av_experiment,,Den schweren Boxer verfolgt der dicke Postbote.,1080,,verfolgt,,1,,,schwer,boxer,,,,,2021-04-07_10h24.20.769,,,82,aron,,,,,0,,,faul,,59.898173105695214,av_experiment,
﻿choice_videos/4_053.mp4,,,,,,83,,,groß,,,,,,Chrome,,,,,,,,,,83,,,test,,2021.1.2,400,left,0,,94,,,,,,,,Win32,,,images/panda.png,,5,1920,5,0,,,2021-04-07_10h24.20.769,0,,SESSION,panda,,,0,,,,images/drache.png,0.2504600000102073,4,,av_experiment,,Den müden Drachen fesselt der große Panda.,1080,,fesselt,,1,,,müde,drache,,,,,2021-04-07_10h24.20.769,,,83,aron,,,,,0,,,blind,,59.898173105695214,av_experiment,
﻿choice_videos/1_005.mp4,,,,,,84,,,arm,,,,,,Chrome,,,,,,,,,,84,,,test,,2021.1.2,0,left,10,,2,,,,,,,,Win32,,,images/tourist.png,,5,1920,5,0,,,2021-04-07_10h24.20.769,0,,SESSION,tourist,,,0,,,,images/koch.png,0.42969999997876585,1,,av_experiment,,Der fiese Koch ersticht den armen Touristen.,1080,,ersticht,,1,,,fies,koch,,,,,2021-04-07_10h24.20.769,,,84,aron,,,,,0,,,dick,,59.898173105695214,av_experiment,
﻿choice_videos/3_045.mp4,,,,,,85,,,brav,,,,,,Chrome,,,,,,,,,,85,,,test,,2021.1.2,10,left,0,,78,,,,,,,,Win32,,,images/soldat.png,,5,1920,5,0,,,2021-04-07_10h24.20.769,0,,SESSION,soldat,,,0,,,,images/pirat.png,0.49850500002503395,3,,av_experiment,,Den fiesen Piraten erschießt der brave Soldat.,1080,,erschießt,,1,,,fies,pirat,,,,,2021-04-07_10h24.20.769,,,85,aron,,,,,0,,,krank,,59.898173105695214,av_experiment,
﻿choice_videos/0_025.mp4,,,,,,86,,,stolz,,,,,,Chrome,,,,,,,,,,86,,,test,,2021.1.2,0,right,0,,40,,,,,,,,Win32,,,images/tiger.png,,5,1920,5,0,,,2021-04-07_10h24.20.769,1,,SESSION,tiger,,,0,,,,images/bär.png,2.326615000027232,0,,av_experiment,,Der dicke Bär massiert den stolzen Tiger.,1080,,massiert,,1,,,dick,bär,,,,,2021-04-07_10h24.20.769,,,86,aron,,,,,0,,,blind,,59.898173105695214,av_experiment,
﻿choice_videos/0_056.mp4,,,,,,87,,,böse,,,,,,Chrome,,,,,,,,,,87,,,test,,2021.1.2,0,left,0,,100,,,,,,,,Win32,,,images/räuber.png,,5,1920,5,0,,,2021-04-07_10h24.20.769,0,,SESSION,räuber,,,0,,,,images/zauberer.png,2.626109999953769,0,,av_experiment,,Den strengen Zauberer jagt der böse Räuber.,1080,,jagt,,1,,,streng,zauberer,,,,,2021-04-07_10h24.20.769,,,87,aron,,,,,0,,,frech,,59.898173105695214,av_experiment,
﻿choice_videos/4_067.mp4,,,,,,88,,,frech,,,,,,Chrome,,,,,,,,,,88,,,test,,2021.1.2,400,right,0,,119,,,,,,,,Win32,,,images/kasper.png,,5,1920,5,1,,,2021-04-07_10h24.20.769,0,,SESSION,kasper,,,0,,,,images/clown.png,0.9210900000180118,4,,av_experiment,,Den stolzen Clown tadelt der freche Kasper.,1080,,tadelt,,1,,,stolz,clown,,,,,2021-04-07_10h24.20.769,,,88,aron,,,,,0,,,nett,,59.898173105695214,av_experiment,
﻿choice_videos/1_062.mp4,,,,,,89,,,stur,,,,,,Chrome,,,,,,,,,,89,,,test,,2021.1.2,0,right,10,,111,,,,,,,,Win32,,,images/esel.png,,5,1920,5,1,,,2021-04-07_10h24.20.769,0,,SESSION,esel,,,0,,,,images/löwe.png,0.037810000008903444,1,,av_experiment,,Den alten Löwen malt der sture Esel.,1080,,malt,,1,,,alt,löwe,,,,,2021-04-07_10h24.20.769,,,89,aron,,,,,0,,,nett,,59.898173105695214,av_experiment,
﻿choice_videos/4_032.mp4,,,,,,90,,,frech,,,,,,Chrome,,,,,,,,,,90,,,test,,2021.1.2,400,up,0,,149,,,,,,,,Win32,,,images/kobold.png,,5,1920,5,2,,,2021-04-07_10h24.20.769,1,,SESSION,kobold,,,0,,,,images/zauberer.png,0.008514999994076788,4,,av_experiment,,Der böse Zauberer tadelt den frechen Kobold.,1080,,tadelt,,1,,,böse,zauberer,,,,,2021-04-07_10h24.20.769,,,90,aron,,,,,0,,,müde,,59.898173105695214,av_experiment,
﻿choice_videos/3_058.mp4,,,,,,91,,,klein,,,,,,Chrome,,,,,,,,,,91,,,test,,2021.1.2,10,left,0,,103,,,,,,,,Win32,,,images/maulwurf.png,,5,1920,5,1,,,2021-04-07_10h24.20.769,1,,SESSION,maulwurf,,,0,,,,images/koala.png,1.9142099999589846,3,,av_experiment,,Den dicken Koala jagt der kleine Maulwurf.,1080,,jagt,,1,,,dick,koala,,,,,2021-04-07_10h24.20.769,,,91,aron,,,,,0,,,blind,,59.898173105695214,av_experiment,
﻿choice_videos/2_073.mp4,,,,,,92,,,treu,,,,,,Chrome,,,,,,,,,,92,,,test,,2021.1.2,0,right,400,,127,,,,,,,,Win32,,,images/pilot.png,,5,1920,5,1,,,2021-04-07_10h24.20.769,0,,SESSION,pilot,,,0,,,,images/arzt.png,1.3636749999714084,2,,av_experiment,,Den dünnen Arzt umarmt der treue Pilot.,1080,,umarmt,,1,,,dünn,arzt,,,,,2021-04-07_10h24.20.769,,,92,aron,,,,,0,,,nass,,59.898173105695214,av_experiment,
﻿choice_videos/3_031.mp4,,,,,,93,,,dick,,,,,,Chrome,,,,,,,,,,93,,,test,,2021.1.2,10,left,0,,53,,,,,,,,Win32,,,images/ritter.png,,5,1920,5,1,,,2021-04-07_10h24.20.769,1,,SESSION,ritter,,,0,,,,images/wikinger.png,0.4658350000390783,3,,av_experiment,,Der böse Wikinger streichelt den dicken Ritter.,1080,,streichelt,,1,,,böse,wikinger,,,,,2021-04-07_10h24.20.769,,,93,aron,,,,,0,,,brav,,59.898173105695214,av_experiment,
﻿choice_videos/2_021.mp4,,,,,,94,,,klein,,,,,,Chrome,,,,,,,,,,94,,,test,,2021.1.2,0,right,400,,32,,,,,,,,Win32,,,images/koala.png,,5,1920,5,0,,,2021-04-07_10h24.20.769,1,,SESSION,koala,,,0,,,,images/panda.png,0.5385949999908917,2,,av_experiment,,Der dicke Panda malt den kleinen Koala.,1080,,malt,,1,,,dick,panda,,,,,2021-04-07_10h24.20.769,,,94,aron,,,,,0,,,böse,,59.898173105695214,av_experiment,
﻿choice_videos/1_069.mp4,,,,,,95,,,arm,,,,,,Chrome,,,,,,,,,,95,,,test,,2021.1.2,0,left,10,,121,,,,,,,,Win32,,,images/pinguin.png,,5,1920,5,1,,,2021-04-07_10h24.20.769,1,,SESSION,pinguin,,,0,,,,images/frosch.png,0.31693500000983477,1,,av_experiment,,Den nassen Frosch tritt der arme Pinguin.,1080,,tritt,,1,,,nass,frosch,,,,,2021-04-07_10h24.20.769,,,95,aron,,,,,0,,,dick,,59.898173105695214,av_experiment,
﻿choice_videos/4_038.mp4,,,,,,96,,,still,,,,,,Chrome,0.968460000003688,,,,,,,,,96,,,test,return,2021.1.2,400,right,0,,64,,,,,,,,Win32,,,images/roboter.png,,5,1920,5,0,,,2021-04-07_10h24.20.769,1,,SESSION,roboter,,,0,,,,images/bär.png,0.23460000002523884,4,,av_experiment,,Der große Bär weckt den stillen Roboter.,1080,,weckt,,1,,,groß,bär,,,,,2021-04-07_10h24.20.769,,,96,aron,,,,,0,,,dick,,59.898173105695214,av_experiment,
﻿choice_videos/2_005.mp4,,,,,,97,,,arm,,,,,,Chrome,,,,,,,,,,97,,,test,,2021.1.2,0,left,400,,7,,,,,,,,Win32,,,images/tourist.png,,5,1920,5,1,,,2021-04-07_10h24.20.769,1,,SESSION,tourist,,,0,,,,images/koch.png,0.35065499995835125,2,,av_experiment,,Der fiese Koch ersticht den armen Touristen.,1080,,ersticht,,1,,,fies,koch,,,,,2021-04-07_10h24.20.769,,,97,aron,,,,,0,,,alt,,59.898173105695214,av_experiment,
﻿choice_videos/0_051.mp4,,,,,,98,,,groß,,,,,,Chrome,,,,,,,,,,98,,,test,,2021.1.2,0,right,0,,90,,,,,,,,Win32,,,images/zauberer.png,,5,1920,5,0,,,2021-04-07_10h24.20.769,1,,SESSION,zauberer,,,0,,,,images/kasper.png,2.556349999969825,0,,av_experiment,,Den blinden Kasper fesselt der große Zauberer.,1080,,fesselt,,1,,,blind,kasper,,,,,2021-04-07_10h24.20.769,,,98,aron,,,,,0,,,fies,,59.898173105695214,av_experiment,
﻿choice_videos/0_022.mp4,,,,,,99,,,alt,,,,,,Chrome,,,,,,,,,,99,,,test,,2021.1.2,0,left,0,,35,,,,,,,,Win32,,,images/löwe.png,,5,1920,5,1,,,2021-04-07_10h24.20.769,1,,SESSION,löwe,,,0,,,,images/esel.png,2.4191049999790266,0,,av_experiment,,Der sture Esel malt den alten Löwen.,1080,,malt,,1,,,stur,esel,,,,,2021-04-07_10h24.20.769,,,99,aron,,,,,0,,,arm,,59.898173105695214,av_experiment,
﻿choice_videos/3_052.mp4,,,,,,100,,,jung,,,,,,Chrome,,,,,,,,,,100,,,test,,2021.1.2,10,left,0,,93,,,,,,,,Win32,,,images/prinz.png,,5,1920,5,1,,,2021-04-07_10h24.20.769,1,,SESSION,prinz,,,0,,,,images/pirat.png,1.948804999992717,3,,av_experiment,,Den bösen Piraten fesselt der junge Prinz.,1080,,fesselt,,1,,,böse,pirat,,,,,2021-04-07_10h24.20.769,,,100,aron,,,,,0,,,alt,,59.898173105695214,av_experiment,
﻿choice_videos/4_006.mp4,,,,,,101,,,dreist,,,,,,Chrome,,,,,,,,,,101,,,test,,2021.1.2,400,left,0,,9,,,,,,,,Win32,,,images/postbote.png,,5,1920,5,1,,,2021-04-07_10h24.20.769,1,,SESSION,postbote,,,0,,,,images/gärtner.png,1.8422849999624304,4,,av_experiment,,Der böse Gärtner erwürgt den dreisten Postboten.,1080,,erwürgt,,1,,,böse,gärtner,,,,,2021-04-07_10h24.20.769,,,101,aron,,,,,0,,,faul,,59.898173105695214,av_experiment,
﻿choice_videos/2_052.mp4,,,,,,102,,,jung,,,,,,Chrome,,,,,,,,,,102,,,test,,2021.1.2,0,right,400,,92,,,,,,,,Win32,,,images/prinz.png,,5,1920,5,0,,,2021-04-07_10h24.20.769,1,,SESSION,prinz,,,0,,,,images/pirat.png,0.07743499998468906,2,,av_experiment,,Den bösen Piraten fesselt der junge Prinz.,1080,,fesselt,,1,,,böse,pirat,,,,,2021-04-07_10h24.20.769,,,102,aron,,,,,0,,,müde,,59.898173105695214,av_experiment,
﻿choice_videos/1_001.mp4,,,,,,103,,,faul,,,,,,Chrome,,,,,,,,,,103,,,test,,2021.1.2,0,up,10,,140,,,,,,,,Win32,,,images/vater.png,,5,1920,5,2,,,2021-04-07_10h24.20.769,1,,SESSION,vater,,,0,,,,images/kasper.png,0.24362999998265877,1,,av_experiment,,Der schlaue Kasper beschattet den faulen Vater.,1080,,beschattet,,1,,,schlau,kasper,,,,,2021-04-07_10h24.20.769,,,103,aron,,,,,0,,,grau,,59.898173105695214,av_experiment,
﻿choice_videos/4_059.mp4,,,,,,104,,,gut,,,,,,Chrome,,,,,,,,,,104,,,test,,2021.1.2,400,right,0,,104,,,,,,,,Win32,,,images/soldat.png,,5,1920,5,0,,,2021-04-07_10h24.20.769,1,,SESSION,soldat,,,0,,,,images/papst.png,0.36038500000722706,4,,av_experiment,,Den netten Papst küsst der gute Soldat.,1080,,küsst,,1,,,nett,papst,,,,,2021-04-07_10h24.20.769,,,104,aron,,,,,0,,,bunt,,59.898173105695214,av_experiment,
﻿choice_videos/0_020.mp4,,,,,,105,,,alt,,,,,,Chrome,,,,,,,,,,105,,,test,,2021.1.2,0,right,0,,30,,,,,,,,Win32,,,images/esel.png,,5,1920,5,0,,,2021-04-07_10h24.20.769,1,,SESSION,esel,,,0,,,,images/pinguin.png,1.3819950000033714,0,,av_experiment,,Der kluge Pinguin küsst den alten Esel.,1080,,küsst,,1,,,klug,pinguin,,,,,2021-04-07_10h24.20.769,,,105,aron,,,,,0,,,böse,,59.898173105695214,av_experiment,
﻿choice_videos/1_020.mp4,,,,,,106,,,alt,,,,,,Chrome,,,,,,,,,,106,,,test,,2021.1.2,0,right,10,,31,,,,,,,,Win32,,,images/esel.png,,5,1920,5,1,,,2021-04-07_10h24.20.769,0,,SESSION,esel,,,0,,,,images/pinguin.png,1.0779449999681674,1,,av_experiment,,Der kluge Pinguin küsst den alten Esel.,1080,,küsst,,1,,,klug,pinguin,,,,,2021-04-07_10h24.20.769,,,106,aron,,,,,0,,,fies,,59.898173105695214,av_experiment,
﻿choice_videos/3_057.mp4,,,,,,107,,,rüde,,,,,,Chrome,,,,,,,,,,107,,,test,,2021.1.2,10,up,0,,153,,,,,,,,Win32,,,images/cowboy.png,,5,1920,5,2,,,2021-04-07_10h24.20.769,1,,SESSION,cowboy,,,0,,,,images/kobold.png,0.2813099999912083,3,,av_experiment,,Den frechen Kobold jagt der rüde Cowboy.,1080,,jagt,,1,,,frech,kobold,,,,,2021-04-07_10h24.20.769,,,107,aron,,,,,0,,,schlau,,59.898173105695214,av_experiment,
﻿choice_videos/0_062.mp4,,,,,,108,,,stur,,,,,,Chrome,,,,,,,,,,108,,,test,,2021.1.2,0,right,0,,110,,,,,,,,Win32,,,images/esel.png,,5,1920,5,0,,,2021-04-07_10h24.20.769,1,,SESSION,esel,,,0,,,,images/löwe.png,0.49892499996349216,0,,av_experiment,,Den alten Löwen malt der sture Esel.,1080,,malt,,1,,,alt,löwe,,,,,2021-04-07_10h24.20.769,,,108,aron,,,,,0,,,faul,,59.898173105695214,av_experiment,
﻿choice_videos/2_001.mp4,,,,,,109,,,faul,,,,,,Chrome,,,,,,,,,,109,,,test,,2021.1.2,0,up,400,,142,,,,,,,,Win32,,,images/vater.png,,5,1920,5,2,,,2021-04-07_10h24.20.769,1,,SESSION,vater,,,0,,,,images/kasper.png,3.6720850000274368,2,,av_experiment,,Der schlaue Kasper beschattet den faulen Vater.,1080,,beschattet,,1,,,schlau,kasper,,,,,2021-04-07_10h24.20.769,,,109,aron,,,,,0,,,blind,,59.898173105695214,av_experiment,
﻿choice_videos/3_055.mp4,,,,,,110,,,klug,,,,,,Chrome,,,,,,,,,,110,,,test,,2021.1.2,10,right,0,,98,,,,,,,,Win32,,,images/pilot.png,,5,1920,5,0,,,2021-04-07_10h24.20.769,1,,SESSION,pilot,,,0,,,,images/pfarrer.png,0.31832000002032146,3,,av_experiment,,Den alten Pfarrer grüßt der kluge Pilot.,1080,,grüßt,,1,,,alt,pfarrer,,,,,2021-04-07_10h24.20.769,,,110,aron,,,,,0,,,nett,,59.898173105695214,av_experiment,
﻿choice_videos/4_029.mp4,,,,,,111,,,blind,,,,,,Chrome,,,,,,,,,,111,,,test,,2021.1.2,400,up,0,,49,,,,,,,,Win32,,,images/wikinger.png,,5,1920,5,1,,,2021-04-07_10h24.20.769,0,,SESSION,wikinger,,,0,,,,images/koch.png,0.4131899999920279,4,,av_experiment,,Der starke Koch schubst den blinden Wikinger.,1080,,schubst,,1,,,stark,koch,,,,,2021-04-07_10h24.20.769,,,111,aron,,,,,0,,,gut,,59.898173105695214,av_experiment,
﻿choice_videos/1_055.mp4,,,,,,112,,,klug,,,,,,Chrome,0.8584250000421889,,,,,,,,,112,,,test,return,2021.1.2,0,up,10,,151,,,,,,,,Win32,,,images/pilot.png,,5,1920,5,2,,,2021-04-07_10h24.20.769,1,,SESSION,pilot,,,0,,,,images/pfarrer.png,0.7691249999916181,1,,av_experiment,,Den alten Pfarrer grüßt der kluge Pilot.,1080,,grüßt,,1,,,alt,pfarrer,,,,,2021-04-07_10h24.20.769,,,112,aron,,,,,0,,,böse,,59.898173105695214,av_experiment,
﻿choice_videos/0_071.mp4,,,,,,113,,,nett,,,,,,Chrome,,,,,,,,,,113,,,test,,2021.1.2,0,left,0,,125,,,,,,,,Win32,,,images/lehrer.png,,5,1920,5,1,,,2021-04-07_10h24.20.769,1,,SESSION,lehrer,,,0,,,,images/junge.png,0.20097499998519197,0,,av_experiment,,Den armen Jungen tröstet der nette Lehrer.,1080,,tröstet,,1,,,arm,junge,,,,,2021-04-07_10h24.20.769,,,113,aron,,,,,0,,,alt,,59.898173105695214,av_experiment,
﻿choice_videos/2_008.mp4,,,,,,114,,,müde,,,,,,Chrome,,,,,,,,,,114,,,test,,2021.1.2,0,up,400,,12,,,,,,,,Win32,,,images/cowboy.png,,5,1920,5,0,,,2021-04-07_10h24.20.769,0,,SESSION,cowboy,,,0,,,,images/soldat.png,0.7169700000085868,2,,av_experiment,,Der gute Soldat fängt den frechen Cowboy.,1080,,fängt,,1,,,gut,soldat,,,,,2021-04-07_10h24.20.769,,,114,aron,,,,,0,,,müde,,59.898173105695214,av_experiment,
﻿choice_videos/3_026.mp4,,,,,,115,,,still,,,,,,Chrome,,,,,,,,,,115,,,test,,2021.1.2,10,left,0,,43,,,,,,,,Win32,,,images/gärtner.png,,5,1920,5,1,,,2021-04-07_10h24.20.769,1,,SESSION,gärtner,,,0,,,,images/maler.png,2.172135000000708,3,,av_experiment,,Der nette Maler massiert den stillen Gärtner.,1080,,massiert,,1,,,nett,maler,,,,,2021-04-07_10h24.20.769,,,115,aron,,,,,0,,,böse,,59.898173105695214,av_experiment,
﻿choice_videos/2_014.mp4,,,,,,116,,,laut,,,,,,Chrome,,,,,,,,,,116,,,test,,2021.1.2,0,left,400,,22,,,,,,,,Win32,,,images/tourist.png,,5,1920,5,0,,,2021-04-07_10h24.20.769,0,,SESSION,tourist,,,0,,,,images/ritter.png,1.7566050000023097,2,,av_experiment,,Der müde Ritter interviewt den lauten Touristen.,1080,,interviewt,,1,,,müde,ritter,,,,,2021-04-07_10h24.20.769,,,116,aron,,,,,0,,,still,,59.898173105695214,av_experiment,
﻿choice_videos/4_015.mp4,,,,,,117,,,klein,,,,,,Chrome,,,,,,,,,,117,,,test,,2021.1.2,400,right,0,,24,,,,,,,,Win32,,,images/pinguin.png,,5,1920,5,0,,,2021-04-07_10h24.20.769,1,,SESSION,pinguin,,,0,,,,images/bär.png,2.8600449999794364,4,,av_experiment,,Der dicke Bär interviewt den kleinen Pinguin.,1080,,interviewt,,1,,,dick,bär,,,,,2021-04-07_10h24.20.769,,,117,aron,,,,,0,,,alt,,59.898173105695214,av_experiment,
﻿choice_videos/0_041.mp4,,,,,,118,,,grün,,,,,,Chrome,,,,,,,,,,118,,,test,,2021.1.2,0,left,0,,70,,,,,,,,Win32,,,images/frosch.png,,5,1920,5,0,,,2021-04-07_10h24.20.769,0,,SESSION,frosch,,,0,,,,images/elefant.png,1.7521399999968708,0,,av_experiment,,Den grauen Elefanten berührt der grüne Frosch.,1080,,berührt,,1,,,grau,elefant,,,,,2021-04-07_10h24.20.769,,,118,aron,,,,,0,,,brav,,59.898173105695214,av_experiment,
﻿choice_videos/3_006.mp4,,,,,,119,,,dreist,,,,,,Chrome,,,,,,,,,,119,,,test,,2021.1.2,10,right,0,,8,,,,,,,,Win32,,,images/postbote.png,,5,1920,5,0,,,2021-04-07_10h24.20.769,1,,SESSION,postbote,,,0,,,,images/gärtner.png,0.5261099999770522,3,,av_experiment,,Der böse Gärtner erwürgt den dreisten Postboten.,1080,,erwürgt,,1,,,böse,gärtner,,,,,2021-04-07_10h24.20.769,,,119,aron,,,,,0,,,arm,,59.898173105695214,av_experiment,
﻿choice_videos/4_043.mp4,,,,,,120,,,brav,,,,,,Chrome,,,,,,,,,,120,,,test,,2021.1.2,400,left,0,,74,,,,,,,,Win32,,,images/soldat.png,,5,1920,5,0,,,2021-04-07_10h24.20.769,0,,SESSION,soldat,,,0,,,,images/jäger.png,0.2355049999896437,4,,av_experiment,,Den blinden Jäger erschießt der brave Soldat.,1080,,erschießt,,1,,,blind,jäger,,,,,2021-04-07_10h24.20.769,,,120,aron,,,,,0,,,gut,,59.898173105695214,av_experiment,
﻿choice_videos/2_063.mp4,,,,,,121,,,bunt,,,,,,Chrome,,,,,,,,,,121,,,test,,2021.1.2,0,right,400,,112,,,,,,,,Win32,,,images/papagei.png,,5,1920,5,0,,,2021-04-07_10h24.20.769,1,,SESSION,papagei,,,0,,,,images/tiger.png,0.0006099999882280827,2,,av_experiment,,Den wilden Tiger malt der bunte Papagei.,1080,,malt,,1,,,wild,tiger,,,,,2021-04-07_10h24.20.769,,,121,aron,,,,,0,,,faul,,59.898173105695214,av_experiment,
﻿choice_videos/4_033.mp4,,,,,,122,,,nass,,,,,,Chrome,,,,,,,,,,122,,,test,,2021.1.2,400,right,0,,54,,,,,,,,Win32,,,images/frosch.png,,5,1920,5,0,,,2021-04-07_10h24.20.769,1,,SESSION,frosch,,,0,,,,images/pinguin.png,0.2855899999849498,4,,av_experiment,,Der arme Pinguin tritt den nassen Frosch.,1080,,tritt,,1,,,arm,pinguin,,,,,2021-04-07_10h24.20.769,,,122,aron,,,,,0,,,brav,,59.898173105695214,av_experiment,
﻿choice_videos/0_009.mp4,,,,,,123,,,groß,,,,,,Chrome,,,,,,,,,,123,,,test,,2021.1.2,0,left,0,,15,,,,,,,,Win32,,,images/zauberer.png,,5,1920,5,1,,,2021-04-07_10h24.20.769,1,,SESSION,zauberer,,,0,,,,images/kasper.png,1.031029999954626,0,,av_experiment,,Der blinde Kasper fesselt den großen Zauberer.,1080,,fesselt,,1,,,blind,kasper,,,,,2021-04-07_10h24.20.769,,,123,aron,,,,,0,,,gut,,59.898173105695214,av_experiment,
﻿choice_videos/4_077.mp4,,,,,,124,,,groß,,,,,,Chrome,,,,,,,,,,124,,,test,,2021.1.2,400,right,0,,134,,,,,,,,Win32,,,images/bär.png,,5,1920,5,0,,,2021-04-07_10h24.20.769,1,,SESSION,bär,,,0,,,,images/roboter.png,0.5882799999671988,4,,av_experiment,,Den stillen Roboter weckt der große Bär.,1080,,weckt,,1,,,still,roboter,,,,,2021-04-07_10h24.20.769,,,124,aron,,,,,0,,,blind,,59.898173105695214,av_experiment,
﻿choice_videos/1_041.mp4,,,,,,125,,,grün,,,,,,Chrome,,,,,,,,,,125,,,test,,2021.1.2,0,left,10,,71,,,,,,,,Win32,,,images/frosch.png,,5,1920,5,1,,,2021-04-07_10h24.20.769,1,,SESSION,frosch,,,0,,,,images/elefant.png,1.2870399999665096,1,,av_experiment,,Den grauen Elefanten berührt der grüne Frosch.,1080,,berührt,,1,,,grau,elefant,,,,,2021-04-07_10h24.20.769,,,125,aron,,,,,0,,,frech,,59.898173105695214,av_experiment,
﻿choice_videos/3_074.mp4,,,,,,126,,,klein,,,,,,Chrome,,,,,,,,,,126,,,test,,2021.1.2,10,left,0,,128,,,,,,,,Win32,,,images/junge.png,,5,1920,5,0,,,2021-04-07_10h24.20.769,0,,SESSION,junge,,,0,,,,images/nikolaus.png,1.9407800000044517,3,,av_experiment,,Den dicken Nikolaus umarmt der kleine Junge.,1080,,umarmt,,1,,,dick,nikolaus,,,,,2021-04-07_10h24.20.769,,,126,aron,,,,,0,,,gut,,59.898173105695214,av_experiment,
﻿choice_videos/1_034.mp4,,,,,,127,,,müde,,,,,,Chrome,,,,,,,,,,127,,,test,,2021.1.2,0,right,10,,56,,,,,,,,Win32,,,images/tiger.png,,5,1920,5,0,,,2021-04-07_10h24.20.769,1,,SESSION,tiger,,,0,,,,images/löwe.png,1.421295000007376,1,,av_experiment,,Der wache Löwe tritt den müden Tiger.,1080,,tritt,,1,,,wach,löwe,,,,,2021-04-07_10h24.20.769,,,127,aron,,,,,0,,,alt,,59.898173105695214,av_experiment,
﻿choice_videos/2_042.mp4,,,,,,128,,,alt,,,,,,Chrome,1.2576899999985471,,,,,,,,,128,,,test,return,2021.1.2,0,left,400,,72,,,,,,,,Win32,,,images/metzger.png,,5,1920,5,0,,,2021-04-07_10h24.20.769,0,,SESSION,metzger,,,0,,,,images/lehrer.png,1.5356100000208244,2,,av_experiment,,Den guten Lehrer beschattet der alte Metzger.,1080,,beschattet,,1,,,gut,lehrer,,,,,2021-04-07_10h24.20.769,,,128,aron,,,,,0,,,fies,,59.898173105695214,av_experiment,
﻿choice_videos/1_051.mp4,,,,,,129,,,groß,,,,,,Chrome,,,,,,,,,,129,,,test,,2021.1.2,0,right,10,,91,,,,,,,,Win32,,,images/zauberer.png,,5,1920,5,1,,,2021-04-07_10h24.20.769,0,,SESSION,zauberer,,,0,,,,images/kasper.png,1.5973800000501797,1,,av_experiment,,Den blinden Kasper fesselt der große Zauberer.,1080,,fesselt,,1,,,blind,kasper,,,,,2021-04-07_10h24.20.769,,,129,aron,,,,,0,,,blind,,59.898173105695214,av_experiment,
﻿choice_videos/2_010.mp4,,,,,,130,,,groß,,,,,,Chrome,,,,,,,,,,130,,,test,,2021.1.2,0,right,400,,17,,,,,,,,Win32,,,images/panda.png,,5,1920,5,1,,,2021-04-07_10h24.20.769,0,,SESSION,panda,,,0,,,,images/drache.png,0.4489150000154041,2,,av_experiment,,Der müde Drache fesselt den großen Panda.,1080,,fesselt,,1,,,müde,drache,,,,,2021-04-07_10h24.20.769,,,130,aron,,,,,0,,,gut,,59.898173105695214,av_experiment,
﻿choice_videos/1_049.mp4,,,,,,131,,,stur,,,,,,Chrome,,,,,,,,,,131,,,test,,2021.1.2,0,right,10,,86,,,,,,,,Win32,,,images/koch.png,,5,1920,5,0,,,2021-04-07_10h24.20.769,1,,SESSION,koch,,,0,,,,images/zauberer.png,0.2033750000409782,1,,av_experiment,,Den schwarzen Zauberer erwürgt der sture Koch.,1080,,erwürgt,,1,,,schwarz,zauberer,,,,,2021-04-07_10h24.20.769,,,131,aron,,,,,0,,,schön,,59.898173105695214,av_experiment,
﻿choice_videos/3_061.mp4,,,,,,132,,,dick,,,,,,Chrome,,,,,,,,,,132,,,test,,2021.1.2,10,right,0,,108,,,,,,,,Win32,,,images/panda.png,,5,1920,5,0,,,2021-04-07_10h24.20.769,1,,SESSION,panda,,,0,,,,images/koala.png,1.6199650000198744,3,,av_experiment,,Den kleinen Koala malt der dicke Panda.,1080,,malt,,1,,,klein,koala,,,,,2021-04-07_10h24.20.769,,,132,aron,,,,,0,,,dünn,,59.898173105695214,av_experiment,
﻿choice_videos/1_036.mp4,,,,,,133,,,blass,,,,,,Chrome,,,,,,,,,,133,,,test,,2021.1.2,0,right,10,,61,,,,,,,,Win32,,,images/tourist.png,,5,1920,5,1,,,2021-04-07_10h24.20.769,0,,SESSION,tourist,,,0,,,,images/maler.png,0.4763900000252761,1,,av_experiment,,Der flinke Maler verfolgt den blassen Touristen.,1080,,verfolgt,,1,,,flink,maler,,,,,2021-04-07_10h24.20.769,,,133,aron,,,,,0,,,dick,,59.898173105695214,av_experiment,
﻿choice_videos/0_077.mp4,,,,,,134,,,groß,,,,,,Chrome,,,,,,,,,,134,,,test,,2021.1.2,0,right,0,,135,,,,,,,,Win32,,,images/bär.png,,5,1920,5,1,,,2021-04-07_10h24.20.769,0,,SESSION,bär,,,0,,,,images/roboter.png,0.3911000000080094,0,,av_experiment,,Den stillen Roboter weckt der große Bär.,1080,,weckt,,1,,,still,roboter,,,,,2021-04-07_10h24.20.769,,,134,aron,,,,,0,,,schwer,,59.898173105695214,av_experiment,
﻿choice_videos/2_023.mp4,,,,,,135,,,gut,,,,,,Chrome,,,,,,,,,,135,,,test,,2021.1.2,0,right,400,,37,,,,,,,,Win32,,,images/drache.png,,5,1920,5,1,,,2021-04-07_10h24.20.769,0,,SESSION,drache,,,0,,,,images/büffel.png,0.07231000001775101,2,,av_experiment,,Der große Büffel malt den guten Drachen.,1080,,malt,,1,,,groß,büffel,,,,,2021-04-07_10h24.20.769,,,135,aron,,,,,0,,,müde,,59.898173105695214,av_experiment,
﻿choice_videos/1_028.mp4,,,,,,136,,,schwach,,,,,,Chrome,,,,,,,,,,136,,,test,,2021.1.2,0,right,10,,46,,,,,,,,Win32,,,images/polizist.png,,5,1920,5,0,,,2021-04-07_10h24.20.769,1,,SESSION,polizist,,,0,,,,images/punker.png,0.391025000018999,1,,av_experiment,,Der freche Punker schlägt den schwachen Polizisten.,1080,,schlägt,,1,,,frech,punker,,,,,2021-04-07_10h24.20.769,,,136,aron,,,,,0,,,gut,,59.898173105695214,av_experiment,
﻿choice_videos/2_018.mp4,,,,,,137,,,lieb,,,,,,Chrome,,,,,,,,,,137,,,test,,2021.1.2,0,up,400,,147,,,,,,,,Win32,,,images/vater.png,,5,1920,5,2,,,2021-04-07_10h24.20.769,1,,SESSION,vater,,,0,,,,images/junge.png,0.18686000001616776,2,,av_experiment,,Der süße Junge küsst den lieben Vater.,1080,,küsst,,1,,,süß,junge,,,,,2021-04-07_10h24.20.769,,,137,aron,,,,,0,,,blind,,59.898173105695214,av_experiment,
﻿choice_videos/4_061.mp4,,,,,,138,,,dick,,,,,,Chrome,,,,,,,,,,138,,,test,,2021.1.2,400,right,0,,109,,,,,,,,Win32,,,images/panda.png,,5,1920,5,1,,,2021-04-07_10h24.20.769,0,,SESSION,panda,,,0,,,,images/koala.png,2.0650999999488704,4,,av_experiment,,Den kleinen Koala malt der dicke Panda.,1080,,malt,,1,,,klein,koala,,,,,2021-04-07_10h24.20.769,,,138,aron,,,,,0,,,grau,,59.898173105695214,av_experiment,
﻿choice_videos/1_060.mp4,,,,,,139,,,scheu,,,,,,Chrome,,,,,,,,,,139,,,test,,2021.1.2,0,right,10,,106,,,,,,,,Win32,,,images/maulwurf.png,,5,1920,5,0,,,2021-04-07_10h24.20.769,1,,SESSION,maulwurf,,,0,,,,images/hase.png,1.4671500000404194,1,,av_experiment,,Den kranken Hasen küsst der scheue Maulwurf.,1080,,küsst,,1,,,krank,hase,,,,,2021-04-07_10h24.20.769,,,139,aron,,,,,0,,,gut,,59.898173105695214,av_experiment,
﻿choice_videos/4_050.mp4,,,,,,140,,,frech,,,,,,Chrome,,,,,,,,,,140,,,test,,2021.1.2,400,left,0,,89,,,,,,,,Win32,,,images/cowboy.png,,5,1920,5,1,,,2021-04-07_10h24.20.769,1,,SESSION,cowboy,,,0,,,,images/soldat.png,1.4161050000111572,4,,av_experiment,,Den guten Soldaten fängt der freche Cowboy.,1080,,fängt,,1,,,gut,soldat,,,,,2021-04-07_10h24.20.769,,,140,aron,,,,,0,,,groß,,59.898173105695214,av_experiment,
﻿choice_videos/0_069.mp4,,,,,,141,,,arm,,,,,,Chrome,,,,,,,,,,141,,,test,,2021.1.2,0,right,0,,120,,,,,,,,Win32,,,images/pinguin.png,,5,1920,5,0,,,2021-04-07_10h24.20.769,1,,SESSION,pinguin,,,0,,,,images/frosch.png,2.2158849999541417,0,,av_experiment,,Den nassen Frosch tritt der arme Pinguin.,1080,,tritt,,1,,,nass,frosch,,,,,2021-04-07_10h24.20.769,,,141,aron,,,,,0,,,böse,,59.898173105695214,av_experiment,
﻿choice_videos/2_044.mp4,,,,,,142,,,brav,,,,,,Chrome,,,,,,,,,,142,,,test,,2021.1.2,0,right,400,,77,,,,,,,,Win32,,,images/polizist.png,,5,1920,5,1,,,2021-04-07_10h24.20.769,0,,SESSION,polizist,,,0,,,,images/jäger.png,0.5420600000070408,2,,av_experiment,,Den bösen Jäger erschießt der brave Polizist.,1080,,erschießt,,1,,,böse,jäger,,,,,2021-04-07_10h24.20.769,,,142,aron,,,,,0,,,stolz,,59.898173105695214,av_experiment,
﻿choice_videos/4_027.mp4,,,,,,143,,,brav,,,,,,Chrome,,,,,,,,,,143,,,test,,2021.1.2,400,left,0,,44,,,,,,,,Win32,,,images/soldat.png,,5,1920,5,0,,,2021-04-07_10h24.20.769,0,,SESSION,soldat,,,0,,,,images/räuber.png,1.9635049999924377,4,,av_experiment,,Der böse Räuber schlägt den braven Soldaten.,1080,,schlägt,,1,,,böse,räuber,,,,,2021-04-07_10h24.20.769,,,143,aron,,,,,0,,,dick,,59.898173105695214,av_experiment,
﻿choice_videos/1_030.mp4,,,,,,144,,,alt,,,,,,Chrome,1.058324999990873,,,,,,,,,144,,,test,return,2021.1.2,0,right,10,,51,,,,,,,,Win32,,,images/mann.png,,5,1920,5,1,,,2021-04-07_10h24.20.769,0,,SESSION,mann,,,0,,,,images/nikolaus.png,0.5374000000301749,1,,av_experiment,,Der dicke Nikolaus streichelt den alten Mann.,1080,,streichelt,,1,,,dick,nikolaus,,,,,2021-04-07_10h24.20.769,,,144,aron,,,,,0,,,gut,,59.898173105695214,av_experiment,
﻿choice_videos/3_011.mp4,,,,,,145,,,träge,,,,,,Chrome,,,,,,,,,,145,,,test,,2021.1.2,10,up,0,,143,,,,,,,,Win32,,,images/riese.png,,5,1920,5,2,,,2021-04-07_10h24.20.769,1,,SESSION,riese,,,0,,,,images/zwerg.png,0.680385000014212,3,,av_experiment,,Der flinke Zwerg fesselt den trägen Riesen.,1080,,fesselt,,1,,,flink,zwerg,,,,,2021-04-07_10h24.20.769,,,145,aron,,,,,0,,,taub,,59.898173105695214,av_experiment,
﻿choice_videos/2_034.mp4,,,,,,146,,,müde,,,,,,Chrome,,,,,,,,,,146,,,test,,2021.1.2,0,left,400,,57,,,,,,,,Win32,,,images/tiger.png,,5,1920,5,1,,,2021-04-07_10h24.20.769,1,,SESSION,tiger,,,0,,,,images/löwe.png,1.6304100000415929,2,,av_experiment,,Der wache Löwe tritt den müden Tiger.,1080,,tritt,,1,,,wach,löwe,,,,,2021-04-07_10h24.20.769,,,146,aron,,,,,0,,,nett,,59.898173105695214,av_experiment,
﻿choice_videos/1_073.mp4,,,,,,147,,,treu,,,,,,Chrome,,,,,,,,,,147,,,test,,2021.1.2,0,right,10,,126,,,,,,,,Win32,,,images/pilot.png,,5,1920,5,0,,,2021-04-07_10h24.20.769,1,,SESSION,pilot,,,0,,,,images/arzt.png,2.7539850000175647,1,,av_experiment,,Den dünnen Arzt umarmt der treue Pilot.,1080,,umarmt,,1,,,dünn,arzt,,,,,2021-04-07_10h24.20.769,,,147,aron,,,,,0,,,flink,,59.898173105695214,av_experiment,
﻿choice_videos/0_015.mp4,,,,,,148,,,klein,,,,,,Chrome,,,,,,,,,,148,,,test,,2021.1.2,0,right,0,,25,,,,,,,,Win32,,,images/pinguin.png,,5,1920,5,1,,,2021-04-07_10h24.20.769,0,,SESSION,pinguin,,,0,,,,images/bär.png,2.6800599999842234,0,,av_experiment,,Der dicke Bär interviewt den kleinen Pinguin.,1080,,interviewt,,1,,,dick,bär,,,,,2021-04-07_10h24.20.769,,,148,aron,,,,,0,,,groß,,59.898173105695214,av_experiment,
﻿choice_videos/3_079.mp4,,,,,,149,,,groß,,,,,,Chrome,,,,,,,,,,149,,,test,,2021.1.2,10,right,0,,138,,,,,,,,Win32,,,images/kapitän.png,,5,1920,5,0,,,2021-04-07_10h24.20.769,1,,SESSION,kapitän,,,0,,,,images/matrose.png,3.1291899999487214,3,,av_experiment,,Den armen Matrosen weckt der große Kapitän.,1080,,weckt,,1,,,arm,matrose,,,,,2021-04-07_10h24.20.769,,,149,aron,,,,,0,,,blind,,59.898173105695214,av_experiment,
﻿choice_videos/1_065.mp4,,,,,,150,,,lahm,,,,,,Chrome,,,,,,,,,,150,,,test,,2021.1.2,0,up,10,,156,,,,,,,,Win32,,,images/bauer.png,,5,1920,5,2,,,2021-04-07_10h24.20.769,1,,SESSION,bauer,,,0,,,,images/tourist.png,0.29982499999459833,1,,av_experiment,,Den starken Touristen schubst der lahme Bauer.,1080,,schubst,,1,,,stark,tourist,,,,,2021-04-07_10h24.20.769,,,150,aron,,,,,0,,,böse,,59.898173105695214,av_experiment,
﻿choice_videos/0_032.mp4,,,,,,151,,,frech,,,,,,Chrome,,,,,,,,,,151,,,test,,2021.1.2,0,up,0,,150,,,,,,,,Win32,,,images/kobold.png,,5,1920,5,2,,,2021-04-07_10h24.20.769,1,,SESSION,kobold,,,0,,,,images/zauberer.png,0.8604499999783002,0,,av_experiment,,Der böse Zauberer tadelt den frechen Kobold.,1080,,tadelt,,1,,,böse,zauberer,,,,,2021-04-07_10h24.20.769,,,151,aron,,,,,0,,,schlau,,59.898173105695214,av_experiment,
﻿choice_videos/2_078.mp4,,,,,,152,,,blind,,,,,,Chrome,,,,,,,,,,152,,,test,,2021.1.2,0,right,400,,137,,,,,,,,Win32,,,images/maler.png,,5,1920,5,1,,,2021-04-07_10h24.20.769,0,,SESSION,maler,,,0,,,,images/kasper.png,0.5072999999974854,2,,av_experiment,,Den braven Kasper weckt der blinde Maler.,1080,,weckt,,1,,,brav,kasper,,,,,2021-04-07_10h24.20.769,,,152,aron,,,,,0,,,klein,,59.898173105695214,av_experiment,
﻿choice_videos/0_004.mp4,,,,,,153,,,böse,,,,,,Chrome,,,,,,,,,,153,,,test,,2021.1.2,0,right,0,,6,,,,,,,,Win32,,,images/koch.png,,5,1920,5,1,,,2021-04-07_10h24.20.769,0,,SESSION,koch,,,0,,,,images/bäcker.png,1.757210000010673,0,,av_experiment,,Der faule Bäcker ersticht den bösen Koch.,1080,,ersticht,,1,,,faul,bäcker,,,,,2021-04-07_10h24.20.769,,,153,aron,,,,,0,,,fies,,59.898173105695214,av_experiment,
﻿choice_videos/3_050.mp4,,,,,,154,,,frech,,,,,,Chrome,,,,,,,,,,154,,,test,,2021.1.2,10,right,0,,88,,,,,,,,Win32,,,images/cowboy.png,,5,1920,5,0,,,2021-04-07_10h24.20.769,1,,SESSION,cowboy,,,0,,,,images/soldat.png,0.6422049999819137,3,,av_experiment,,Den guten Soldaten fängt der freche Cowboy.,1080,,fängt,,1,,,gut,soldat,,,,,2021-04-07_10h24.20.769,,,154,aron,,,,,0,,,gut,,59.898173105695214,av_experiment,
﻿choice_videos/2_017.mp4,,,,,,155,,,blass,,,,,,Chrome,,,,,,,,,,155,,,test,,2021.1.2,0,left,400,,27,,,,,,,,Win32,,,images/cowboy.png,,5,1920,5,1,,,2021-04-07_10h24.20.769,1,,SESSION,cowboy,,,0,,,,images/radfahrer.png,0.5257399999536574,2,,av_experiment,,Der schöne Radfahrer jagt den blassen Cowboy.,1080,,jagt,,1,,,schön,radfahrer,,,,,2021-04-07_10h24.20.769,,,155,aron,,,,,0,,,böse,,59.898173105695214,av_experiment,
﻿choice_videos/4_045.mp4,,,,,,156,,,brav,,,,,,Chrome,,,,,,,,,,156,,,test,,2021.1.2,400,left,0,,79,,,,,,,,Win32,,,images/soldat.png,,5,1920,5,1,,,2021-04-07_10h24.20.769,1,,SESSION,soldat,,,0,,,,images/pirat.png,1.2752999999793246,4,,av_experiment,,Den fiesen Piraten erschießt der brave Soldat.,1080,,erschießt,,1,,,fies,pirat,,,,,2021-04-07_10h24.20.769,,,156,aron,,,,,0,,,krank,,59.898173105695214,av_experiment,
﻿choice_videos/2_055.mp4,,,,,,157,,,klug,,,,,,Chrome,,,,,,,,,,157,,,test,,2021.1.2,0,up,400,,152,,,,,,,,Win32,,,images/pilot.png,,5,1920,5,2,,,2021-04-07_10h24.20.769,1,,SESSION,pilot,,,0,,,,images/pfarrer.png,0.3628700000117533,2,,av_experiment,,Den alten Pfarrer grüßt der kluge Pilot.,1080,,grüßt,,1,,,alt,pfarrer,,,,,2021-04-07_10h24.20.769,,,157,aron,,,,,0,,,böse,,59.898173105695214,av_experiment,
﻿choice_videos/0_030.mp4,,,,,,158,,,alt,,,,,,Chrome,,,,,,,,,,158,,,test,,2021.1.2,0,right,0,,50,,,,,,,,Win32,,,images/mann.png,,5,1920,5,0,,,2021-04-07_10h24.20.769,1,,SESSION,mann,,,0,,,,images/nikolaus.png,0.3049399999435991,0,,av_experiment,,Der dicke Nikolaus streichelt den alten Mann.,1080,,streichelt,,1,,,dick,nikolaus,,,,,2021-04-07_10h24.20.769,,,158,aron,,,,,0,,,klein,,59.898173105695214,av_experiment,
﻿choice_videos/3_008.mp4,,,,,,159,,,müde,,,,,,Chrome,,,,,,,,,,159,,,test,,2021.1.2,10,left,0,,13,,,,,,,,Win32,,,images/cowboy.png,,5,1920,5,1,,,2021-04-07_10h24.20.769,1,,SESSION,cowboy,,,0,,,,images/soldat.png,0.18875499995192513,3,,av_experiment,,Der gute Soldat fängt den frechen Cowboy.,1080,,fängt,,1,,,gut,soldat,,,,,2021-04-07_10h24.20.769,,,159,aron,,,,,0,,,groß,,59.898173105695214,av_experiment,
﻿sj_videos/4_083.mp4,,1,,,,,,,,,,right,,0.4184900000109337,Chrome,,,,,,,,,,,,return,test,,2021.1.2,400,,0,1,2,1.4764800000120886,,,,,,,Win32,,0,,,5,1920,5,,0,,2021-04-07_10h24.20.769,,,SESSION,,,,,,0,,,,4,,av_experiment,,"Der Maler, der die Vampire beschattet, gähnt.",1080,,,,,0,,,,,,,right,2021-04-07_10h24.20.769,,1.0620149999740534,,aron,1,,,,0,,,,,59.898173105695214,av_experiment,
﻿sj_videos/0_089.mp4,,7,,,,,,,,,,right,,0.2661649999790825,Chrome,,,,,,,,,,,,,test,,2021.1.2,0,,0,1,8,2.3692099999752827,,,,,,,Win32,,0,,,5,1920,5,,1,,2021-04-07_10h24.20.769,,,SESSION,,,,,,1,,,,0,,av_experiment,,"Der Bräutigam, der die Riesen ersticht, lacht.",1080,,,,,1,,,,,,,right,2021-04-07_10h24.20.769,,,,aron,1,,,,0,,,,,59.898173105695214,av_experiment,
﻿sj_videos/2_091.mp4,,9,,,,,,,,,,right,,0.15233999997144565,Chrome,,,,,,,,,,,,,test,,2021.1.2,0,,400,1,10,0.568230000033509,,,,,,,Win32,,0,,,5,1920,5,,2,,2021-04-07_10h24.20.769,,,SESSION,,,,,,2,,,,2,,av_experiment,,"Der Richter, der die Radfahrer erwürgt, weint.",1080,,,,,1,,,,,,,left,2021-04-07_10h24.20.769,,,,aron,1,,,,0,,,,,59.898173105695214,av_experiment,
﻿sj_videos/1_090.mp4,,8,,,,,,,,,,right,,1.9367199999978766,Chrome,,,,,,,,,,,,,test,,2021.1.2,0,,10,0,9,0.08299500000430271,,,,,,,Win32,,0,,,5,1920,5,,3,,2021-04-07_10h24.20.769,,,SESSION,,,,,,3,,,,1,,av_experiment,,"Der Maler, der die Witwen ersticht, zittert.",1080,,,,,1,,,,,,,right,2021-04-07_10h24.20.769,,,,aron,1,,,,0,,,,,59.898173105695214,av_experiment,
﻿sj_videos/2_086.mp4,,4,,,,,,,,,,right,,0.18406999995931983,Chrome,,,,,,,,,,,,,test,,2021.1.2,0,,400,0,5,0.9937650000210851,,,,,,,Win32,,0,,,5,1920,5,,4,,2021-04-07_10h24.20.769,,,SESSION,,,,,,4,,,,2,,av_experiment,,"Der Frisör, der die Bäcker erschießt, niest.",1080,,,,,1,,,,,,,right,2021-04-07_10h24.20.769,,,,aron,1,,,,0,,,,,59.898173105695214,av_experiment,
﻿sj_videos/3_082.mp4,,0,,,,,,,,,,right,,0.323389999975916,Chrome,,,,,,,,,,,,,test,,2021.1.2,10,,0,1,1,0.5172100000199862,,,,,,,Win32,,0,,,5,1920,5,,5,,2021-04-07_10h24.20.769,,,SESSION,,,,,,5,,,,3,,av_experiment,,"Der Punker, der die Maler beschattet, niest.",1080,,,,,0,,,,,,,right,2021-04-07_10h24.20.769,,,,aron,1,,,,0,,,,,59.898173105695214,av_experiment,
﻿sj_videos/1_085.mp4,,3,,,,,,,,,,right,,0.2826250000507571,Chrome,,,,,,,,,,,,,test,,2021.1.2,0,,10,1,4,1.0528599999961443,,,,,,,Win32,,0,,,5,1920,5,,6,,2021-04-07_10h24.20.769,,,SESSION,,,,,,6,,,,1,,av_experiment,,"Der Mönch, der die Astronauten erschießt, lacht.",1080,,,,,1,,,,,,,left,2021-04-07_10h24.20.769,,,,aron,1,,,,0,,,,,59.898173105695214,av_experiment,
﻿sj_videos/3_087.mp4,,5,,,,,,,,,,right,,0.1574900000123307,Chrome,,,,,,,,,,,,,test,,2021.1.2,10,,0,1,6,0.7100050000008196,,,,,,,Win32,,0,,,5,1920,5,,7,,2021-04-07_10h24.20.769,,,SESSION,,,,,,7,,,,3,,av_experiment,,"Der Frisör, der die Köchinnen erschießt, grinst.",1080,,,,,0,,,,,,,right,2021-04-07_10h24.20.769,,,,aron,1,,,,0,,,,,59.898173105695214,av_experiment,
﻿sj_videos/4_088.mp4,,6,,,,,,,,,,left,,0.2242850000038743,Chrome,,,,,,,,,,,,,test,,2021.1.2,400,,0,1,7,0.4083000000100583,,,,,,,Win32,,0,,,5,1920,5,,8,,2021-04-07_10h24.20.769,,,SESSION,,,,,,8,,,,4,,av_experiment,,"Der Koch, der die Touristinnen erschießt, niest.",1080,,,,,1,,,,,,,right,2021-04-07_10h24.20.769,,,,aron,1,,,,0,,,,,59.898173105695214,av_experiment,
﻿sj_videos/0_084.mp4,,2,,,,,,,,,,right,,0.15101500001037493,Chrome,,,,,,,,,,,,,test,,2021.1.2,0,,0,1,3,0.4713150000316091,,,,,,,Win32,,0,,,5,1920,5,,9,,2021-04-07_10h24.20.769,,,SESSION,,,,,,9,,,,0,,av_experiment,,"Der Lehrer, der die Models bestiehlt, zittert.",1080,,,,,1,,,,,,,right,2021-04-07_10h24.20.769,,,,aron,1,,,,0,,,,,59.898173105695214,av_experiment,
﻿,,,,,,,,,,,,,,,Chrome,,,,,,19.157430000021122,,,,,,,test,,2021.1.2,,,,,,,,return,,,,,Win32,,,,,5,1920,5,,,,2021-04-07_10h24.20.769,,,SESSION,,,,,,,,,,,,av_experiment,,,1080,,,,,,,,,,,,,2021-04-07_10h24.20.769,,,,aron,,,,,0,,,,,59.898173105695214,av_experiment,
﻿,,,,,,,,,,0,,,,,Chrome,,,,,0,,,4.75409999999988,,,,,test,,2021.1.2,,,,,,,,,,,,,Win32,,,,return,15,1280,15,,,,2021-04-08_21h13.47.658,,return,SESSION,,,,,,,,,,,,av_experiment,,,720,,,4.638560000000112,,,0,,,,,,,2021-04-08_21h13.47.658,,,,aron,,,,,0,1,0,,,60.06727534838642,av_experiment,
﻿choice_videos/2_055.mp4,,,,,0,,,,klug,,,,,,Chrome,,,right,,,,,,,,return,,test,,2021.1.2,0,right,400,,152,,,,,1.4246950000001561,,,Win32,1,,images/pilot.png,,15,1280,15,0,,4.873160000000098,2021-04-08_21h13.47.658,1,,SESSION,pilot,0,,,,,,images/pfarrer.png,4.86892499999999,2,,av_experiment,return,Den alten Pfarrer grüßt der kluge Pilot.,720,,grüßt,,,,,alt,pfarrer,return,2.9703700000000026,1,,2021-04-08_21h13.47.658,return,,,aron,,2,,0,0,,,dick,2.2307499999999436,60.06727534838642,av_experiment,
﻿choice_videos/4_072.mp4,,,,,1,,,,hübsch,,,,,,Chrome,,,left,,,,,,,,,,test,,2021.1.2,400,left,0,,159,,,,,,,,Win32,1,,images/bräutigam.png,,15,1280,15,1,,,2021-04-08_21h13.47.658,1,,SESSION,bräutigam,1,,,,,,images/mönch.png,4.622600000000119,4,,av_experiment,,Den dicken Mönch tröstet der hübsche Bräutigam.,720,,tröstet,,,,,dick,mönch,,,2,,2021-04-08_21h13.47.658,,,,aron,,3,,0,0,,,alt,,60.06727534838642,av_experiment,
﻿choice_videos/3_011.mp4,,,,,2,,,,träge,,,,,,Chrome,,,right,,,,,,,,,,test,,2021.1.2,10,right,0,,143,,,,,,,,Win32,1,,images/riese.png,,15,1280,15,0,,,2021-04-08_21h13.47.658,1,,SESSION,riese,2,,,,,,images/zwerg.png,4.36569499999996,3,,av_experiment,,Der flinke Zwerg fesselt den trägen Riesen.,720,,fesselt,,,,,flink,zwerg,,,3,,2021-04-08_21h13.47.658,,,,aron,,0,,0,0,,,alt,,60.06727534838642,av_experiment,
﻿choice_videos/1_016.mp4,,,,,3,,,,frech,,,,,,Chrome,,,left,,,,,,,,,,test,,2021.1.2,0,left,10,,146,,,,,,,,Win32,1,,images/kobold.png,,15,1280,15,1,,,2021-04-08_21h13.47.658,1,,SESSION,kobold,3,,,,,,images/cowboy.png,7.115254999999934,1,,av_experiment,,Der rüde Cowboy jagt den frechen Kobold.,720,,jagt,,,,,rüde,cowboy,,,4,,2021-04-08_21h13.47.658,,,,aron,,1,,0,0,,,rüde,,60.06727534838642,av_experiment,
﻿sj_videos/1_083.mp4,,,,0,,,,0,,,,right,return,0.4266450000000077,Chrome,,,,,,,1,,,,,return,test,,2021.1.2,0,,10,0,2,1.171389999999974,,,1,,,,Win32,,,,,15,1280,15,,,,2021-04-08_21h13.47.658,,,SESSION,,,1,,,,,,,1,,av_experiment,,"Der Maler, der die Vampire beschattet, gähnt.",720,0,,,,1,,,,,,,right,2021-04-08_21h13.47.658,,2.717104999999947,,aron,,,0,,0,,,,,60.06727534838642,av_experiment,6.01891999999998
﻿sj_videos/0_087.mp4,,,,0,,,,0,,,,right,,0.37081000000011954,Chrome,,,,,,,5,,,,,,test,,2021.1.2,0,,0,1,6,0.5310699999999997,,,2,,,,Win32,,,,,15,1280,15,,,,2021-04-08_21h13.47.658,,,SESSION,,,1,,,,,,,0,,av_experiment,,"Der Frisör, der die Köchinnen erschießt, grinst.",720,1,,,,1,,,,,,,right,2021-04-08_21h13.47.658,,,,aron,,,1,,0,,,,,60.06727534838642,av_experiment,
﻿sj_videos/2_084.mp4,,,,0,,,,0,,,,right,,0.45242000000007465,Chrome,,,,,,,2,,,,,,test,,2021.1.2,0,,400,0,3,1.8917149999999765,,,3,,,,Win32,,,,,15,1280,15,,,,2021-04-08_21h13.47.658,,,SESSION,,,1,,,,,,,2,,av_experiment,,"Der Lehrer, der die Models bestiehlt, zittert.",720,2,,,,1,,,,,,,right,2021-04-08_21h13.47.658,,,,aron,,,2,,0,,,,,60.06727534838642,av_experiment,
﻿sj_videos/4_091.mp4,,,,0,,,,0,,,,left,,0.5164649999999256,Chrome,,,,,,,9,,,,,,test,,2021.1.2,400,,0,0,10,1.3870249999999942,,,4,,,,Win32,,,,,15,1280,15,,,,2021-04-08_21h13.47.658,,,SESSION,,,1,,,,,,,4,,av_experiment,,"Der Richter, der die Radfahrer erwürgt, weint.",720,3,,,,1,,,,,,,left,2021-04-08_21h13.47.658,,,,aron,,,3,,0,,,,,60.06727534838642,av_experiment,
﻿sj_videos/3_090.mp4,,,,0,,,,0,,,,right,,0.4001850000001923,Chrome,,,,,,,8,,,,,,test,,2021.1.2,10,,0,1,9,0.8549450000000434,,,5,,,,Win32,,,,,15,1280,15,,,,2021-04-08_21h13.47.658,,,SESSION,,,1,,,,,,,3,,av_experiment,,"Der Maler, der die Witwen ersticht, zittert.",720,4,,,,0,,,,,,,right,2021-04-08_21h13.47.658,,,,aron,,,4,,0,,,,,60.06727534838642,av_experiment,
﻿sj_videos/1_088.mp4,,,,0,,,,0,,,,right,,0.3842250000000149,Chrome,,,,,,,6,,,,,,test,,2021.1.2,0,,10,0,7,0.19580999999993765,,,6,,,,Win32,,,,,15,1280,15,,,,2021-04-08_21h13.47.658,,,SESSION,,,1,,,,,,,1,,av_experiment,,"Der Koch, der die Touristinnen erschießt, niest.",720,5,,,,1,,,,,,,right,2021-04-08_21h13.47.658,,,,aron,,,5,,0,,,,,60.06727534838642,av_experiment,
﻿sj_videos/0_082.mp4,,,,0,,,,0,,,,right,,0.3685699999998633,Chrome,,,,,,,0,,,,,,test,,2021.1.2,0,,0,1,1,0.7310150000000704,,,7,,,,Win32,,,,,15,1280,15,,,,2021-04-08_21h13.47.658,,,SESSION,,,1,,,,,,,0,,av_experiment,,"Der Punker, der die Maler beschattet, niest.",720,6,,,,1,,,,,,,right,2021-04-08_21h13.47.658,,,,aron,,,6,,0,,,,,60.06727534838642,av_experiment,
﻿sj_videos/2_089.mp4,,,,0,,,,0,,,,right,,0.40706999999997606,Chrome,,,,,,,7,,,,,,test,,2021.1.2,0,,400,0,8,0.8704199999999673,,,8,,,,Win32,,,,,15,1280,15,,,,2021-04-08_21h13.47.658,,,SESSION,,,1,,,,,,,2,,av_experiment,,"Der Bräutigam, der die Riesen ersticht, lacht.",720,7,,,,1,,,,,,,right,2021-04-08_21h13.47.658,,,,aron,,,7,,0,,,,,60.06727534838642,av_experiment,
﻿sj_videos/3_085.mp4,,,,0,,,,0,,,,right,,0.3400249999999687,Chrome,,,,,,,3,,,,,,test,,2021.1.2,10,,0,1,4,0.6550649999999223,,,9,,,,Win32,,,,,15,1280,15,,,,2021-04-08_21h13.47.658,,,SESSION,,,1,,,,,,,3,,av_experiment,,"Der Mönch, der die Astronauten erschießt, lacht.",720,8,,,,0,,,,,,,right,2021-04-08_21h13.47.658,,,,aron,,,8,,0,,,,,60.06727534838642,av_experiment,
﻿sj_videos/4_086.mp4,,,,0,,,,0,,,,left,,0.5825199999999313,Chrome,,,,,,,4,,,,,,test,,2021.1.2,400,,0,1,5,5.920874999999995,,,10,,,,Win32,,,,,15,1280,15,,,,2021-04-08_21h13.47.658,,,SESSION,,,1,,,,,,,4,,av_experiment,,"Der Frisör, der die Bäcker erschießt, niest.",720,9,,,,1,,,,,,,right,2021-04-08_21h13.47.658,,,,aron,,,9,,0,,,,,60.06727534838642,av_experiment,
﻿choice_videos/3_068.mp4,,,,,,0,,,böse,,,,,,Chrome,,,up,,,,,,0,0,,,test,,2021.1.2,10,up,0,,158,,,,,,2,,Win32,,,images/zauberer.png,,15,1280,15,2,,,2021-04-08_21h13.47.658,1,,SESSION,zauberer,,,0,,,,images/kobold.png,4.93505499999992,3,,av_experiment,,Den frechen Kobold tadelt der böse Zauberer.,720,,tadelt,,1,,,frech,kobold,,,1,,2021-04-08_21h13.47.658,,,0,aron,,,,,0,,,böse,,60.06727534838642,av_experiment,
﻿choice_videos/1_034.mp4,,,,,,1,,,müde,,,,,,Chrome,,,right,,,,,,0,1,,,test,,2021.1.2,0,right,10,,56,,,,,,4,,Win32,,,images/tiger.png,,15,1280,15,0,,,2021-04-08_21h13.47.658,1,,SESSION,tiger,,,0,,,,images/löwe.png,4.349350000000015,1,,av_experiment,,Der wache Löwe tritt den müden Tiger.,720,,tritt,,1,,,wach,löwe,,,3,,2021-04-08_21h13.47.658,,,1,aron,,,,,0,,,alt,,60.06727534838642,av_experiment,
﻿choice_videos/2_018.mp4,,,,,,2,,,lieb,,,,,,Chrome,,,up,,,,,,0,2,,,test,,2021.1.2,0,up,400,,147,,,,,,6,,Win32,,,images/vater.png,,15,1280,15,2,,,2021-04-08_21h13.47.658,1,,SESSION,vater,,,0,,,,images/junge.png,4.376285000000053,2,,av_experiment,,Der süße Junge küsst den lieben Vater.,720,,küsst,,1,,,süß,junge,,,5,,2021-04-08_21h13.47.658,,,2,aron,,,,,0,,,blind,,60.06727534838642,av_experiment,
﻿choice_videos/1_073.mp4,,,,,,3,,,treu,,,,,,Chrome,,,right,,,,,,0,3,,,test,,2021.1.2,0,right,10,,126,,,,,,8,,Win32,,,images/pilot.png,,15,1280,15,0,,,2021-04-08_21h13.47.658,1,,SESSION,pilot,,,0,,,,images/arzt.png,4.388759999999991,1,,av_experiment,,Den dünnen Arzt umarmt der treue Pilot.,720,,umarmt,,1,,,dünn,arzt,,,7,,2021-04-08_21h13.47.658,,,3,aron,,,,,0,,,flink,,60.06727534838642,av_experiment,
﻿choice_videos/3_058.mp4,,,,,,4,,,klein,,,,,,Chrome,,,left,,,,,,0,4,,,test,,2021.1.2,10,left,0,,103,,,,,,10,,Win32,,,images/maulwurf.png,,15,1280,15,1,,,2021-04-08_21h13.47.658,1,,SESSION,maulwurf,,,0,,,,images/koala.png,3.4611050000000887,3,,av_experiment,,Den dicken Koala jagt der kleine Maulwurf.,720,,jagt,,1,,,dick,koala,,,9,,2021-04-08_21h13.47.658,,,4,aron,,,,,0,,,blind,,60.06727534838642,av_experiment,
﻿choice_videos/1_017.mp4,,,,,,5,,,blass,,,,,,Chrome,,,right,,,,,,0,5,,,test,,2021.1.2,0,right,10,,26,,,,,,12,,Win32,,,images/cowboy.png,,15,1280,15,0,,,2021-04-08_21h13.47.658,1,,SESSION,cowboy,,,0,,,,images/radfahrer.png,3.7055299999999534,1,,av_experiment,,Der schöne Radfahrer jagt den blassen Cowboy.,720,,jagt,,1,,,schön,radfahrer,,,11,,2021-04-08_21h13.47.658,,,5,aron,,,,,0,,,wach,,60.06727534838642,av_experiment,
﻿choice_videos/0_036.mp4,,,,,,6,,,blass,,,,,,Chrome,,,right,,,,,,0,6,,,test,,2021.1.2,0,right,0,,60,,,,,,14,,Win32,,,images/tourist.png,,15,1280,15,0,,,2021-04-08_21h13.47.658,1,,SESSION,tourist,,,0,,,,images/maler.png,4.41312999999991,0,,av_experiment,,Der flinke Maler verfolgt den blassen Touristen.,720,,verfolgt,,1,,,flink,maler,,,13,,2021-04-08_21h13.47.658,,,6,aron,,,,,0,,,alt,,60.06727534838642,av_experiment,
﻿choice_videos/3_018.mp4,,,,,,7,,,lieb,,,,,,Chrome,,,up,,,,,,0,7,,,test,,2021.1.2,10,up,0,,148,,,,,,16,,Win32,,,images/vater.png,,15,1280,15,2,,,2021-04-08_21h13.47.658,1,,SESSION,vater,,,0,,,,images/junge.png,3.337374999999838,3,,av_experiment,,Der süße Junge küsst den lieben Vater.,720,,küsst,,1,,,süß,junge,,,15,,2021-04-08_21h13.47.658,,,7,aron,,,,,0,,,flink,,60.06727534838642,av_experiment,
﻿choice_videos/2_052.mp4,,,,,,8,,,jung,,,,,,Chrome,14.4994650000001,,right,,,,,,0,8,,,test,return,2021.1.2,0,left,400,,92,,,,,,18,,Win32,,,images/prinz.png,,15,1280,15,0,,,2021-04-08_21h13.47.658,0,,SESSION,prinz,,,0,,,,images/pirat.png,4.911709999999857,2,,av_experiment,,Den bösen Piraten fesselt der junge Prinz.,720,,fesselt,,1,,,böse,pirat,,,17,,2021-04-08_21h13.47.658,,,8,aron,,,,,0,,,müde,,60.06727534838642,av_experiment,
﻿choice_videos/0_051.mp4,,,,,,9,,,groß,,,,,,Chrome,,,right,,,,,,0,9,,,test,,2021.1.2,0,right,0,,90,,,,,,20,,Win32,,,images/zauberer.png,,15,1280,15,0,,,2021-04-08_21h13.47.658,1,,SESSION,zauberer,,,0,,,,images/kasper.png,4.061799999999948,0,,av_experiment,,Den blinden Kasper fesselt der große Zauberer.,720,,fesselt,,1,,,blind,kasper,,,19,,2021-04-08_21h13.47.658,,,9,aron,,,,,0,,,fies,,60.06727534838642,av_experiment,
﻿choice_videos/1_013.mp4,,,,,,10,,,dick,,,,,,Chrome,,,left,,,,,,0,10,,,test,,2021.1.2,0,left,10,,21,,,,,,22,,Win32,,,images/frisör.png,,15,1280,15,1,,,2021-04-08_21h13.47.658,1,,SESSION,frisör,,,0,,,,images/postbote.png,3.4508749999999964,1,,av_experiment,,Der stille Postbote grüßt den dicken Frisör.,720,,grüßt,,1,,,still,postbote,,,21,,2021-04-08_21h13.47.658,,,10,aron,,,,,0,,,frech,,60.06727534838642,av_experiment,
﻿choice_videos/2_039.mp4,,,,,,11,,,blind,,,,,,Chrome,,,left,,,,,,0,11,,,test,,2021.1.2,0,left,400,,67,,,,,,24,,Win32,,,images/maler.png,,15,1280,15,1,,,2021-04-08_21h13.47.658,1,,SESSION,maler,,,0,,,,images/kasper.png,2.1376399999999194,2,,av_experiment,,Der brave Kasper weckt den blinden Maler.,720,,weckt,,1,,,brav,kasper,,,23,,2021-04-08_21h13.47.658,,,11,aron,,,,,0,,,stur,,60.06727534838642,av_experiment,
﻿choice_videos/4_033.mp4,,,,,,12,,,nass,,,,,,Chrome,,,right,,,,,,0,12,,,test,,2021.1.2,400,right,0,,54,,,,,,26,,Win32,,,images/frosch.png,,15,1280,15,0,,,2021-04-08_21h13.47.658,1,,SESSION,frosch,,,0,,,,images/pinguin.png,4.353234999999813,4,,av_experiment,,Der arme Pinguin tritt den nassen Frosch.,720,,tritt,,1,,,arm,pinguin,,,25,,2021-04-08_21h13.47.658,,,12,aron,,,,,0,,,brav,,60.06727534838642,av_experiment,
﻿choice_videos/1_023.mp4,,,,,,13,,,gut,,,,,,Chrome,,,right,,,,,,0,13,,,test,,2021.1.2,0,right,10,,36,,,,,,28,,Win32,,,images/drache.png,,15,1280,15,0,,,2021-04-08_21h13.47.658,1,,SESSION,drache,,,0,,,,images/büffel.png,3.588664999999992,1,,av_experiment,,Der große Büffel malt den guten Drachen.,720,,malt,,1,,,groß,büffel,,,27,,2021-04-08_21h13.47.658,,,13,aron,,,,,0,,,alt,,60.06727534838642,av_experiment,
﻿choice_videos/4_032.mp4,,,,,,14,,,frech,,,,,,Chrome,,,up,,,,,,0,14,,,test,,2021.1.2,400,up,0,,149,,,,,,30,,Win32,,,images/kobold.png,,15,1280,15,2,,,2021-04-08_21h13.47.658,1,,SESSION,kobold,,,0,,,,images/zauberer.png,5.995740000000069,4,,av_experiment,,Der böse Zauberer tadelt den frechen Kobold.,720,,tadelt,,1,,,böse,zauberer,,,29,,2021-04-08_21h13.47.658,,,14,aron,,,,,0,,,müde,,60.06727534838642,av_experiment,
﻿choice_videos/1_069.mp4,,,,,,15,,,arm,,,,,,Chrome,,,left,,,,,,0,15,,,test,,2021.1.2,0,left,10,,121,,,,,,32,,Win32,,,images/pinguin.png,,15,1280,15,1,,,2021-04-08_21h13.47.658,1,,SESSION,pinguin,,,0,,,,images/frosch.png,1.952449999999999,1,,av_experiment,,Den nassen Frosch tritt der arme Pinguin.,720,,tritt,,1,,,nass,frosch,,,31,,2021-04-08_21h13.47.658,,,15,aron,,,,,0,,,dick,,60.06727534838642,av_experiment,
﻿choice_videos/0_048.mp4,,,,,,16,,,böse,,,,,,Chrome,2.425224999999955,,left,,,,,,0,16,,,test,return,2021.1.2,0,left,0,,85,,,,,,34,,Win32,,,images/gärtner.png,,15,1280,15,1,,,2021-04-08_21h13.47.658,1,,SESSION,gärtner,,,0,,,,images/postbote.png,2.0184649999998783,0,,av_experiment,,Den dreisten Postboten erwürgt der böse Gärtner.,720,,erwürgt,,1,,,dreist,postbote,,,33,,2021-04-08_21h13.47.658,,,16,aron,,,,,0,,,blind,,60.06727534838642,av_experiment,
﻿choice_videos/4_061.mp4,,,,,,17,,,dick,,,,,,Chrome,,,left,,,,,,0,17,,,test,,2021.1.2,400,right,0,,109,,,,,,36,,Win32,,,images/panda.png,,15,1280,15,1,,,2021-04-08_21h13.47.658,0,,SESSION,panda,,,0,,,,images/koala.png,2.3749849999998673,4,,av_experiment,,Den kleinen Koala malt der dicke Panda.,720,,malt,,1,,,klein,koala,,,35,,2021-04-08_21h13.47.658,,,17,aron,,,,,0,,,grau,,60.06727534838642,av_experiment,
﻿choice_videos/1_020.mp4,,,,,,18,,,alt,,,,,,Chrome,,,left,,,,,,0,18,,,test,,2021.1.2,0,left,10,,31,,,,,,38,,Win32,,,images/esel.png,,15,1280,15,1,,,2021-04-08_21h13.47.658,1,,SESSION,esel,,,0,,,,images/pinguin.png,2.0694599999999923,1,,av_experiment,,Der kluge Pinguin küsst den alten Esel.,720,,küsst,,1,,,klug,pinguin,,,37,,2021-04-08_21h13.47.658,,,18,aron,,,,,0,,,fies,,60.06727534838642,av_experiment,
﻿choice_videos/3_035.mp4,,,,,,19,,,arm,,,,,,Chrome,,,right,,,,,,0,19,,,test,,2021.1.2,10,right,0,,58,,,,,,40,,Win32,,,images/junge.png,,15,1280,15,0,,,2021-04-08_21h13.47.658,1,,SESSION,junge,,,0,,,,images/lehrer.png,3.175664999999981,3,,av_experiment,,Der nette Lehrer tröstet den armen Jungen.,720,,tröstet,,1,,,nett,lehrer,,,39,,2021-04-08_21h13.47.658,,,19,aron,,,,,0,,,nett,,60.06727534838642,av_experiment,
﻿choice_videos/0_065.mp4,,,,,,20,,,lahm,,,,,,Chrome,,,up,,,,,,0,20,,,test,,2021.1.2,0,up,0,,155,,,,,,42,,Win32,,,images/bauer.png,,15,1280,15,2,,,2021-04-08_21h13.47.658,1,,SESSION,bauer,,,0,,,,images/tourist.png,4.137189999999919,0,,av_experiment,,Den starken Touristen schubst der lahme Bauer.,720,,schubst,,1,,,stark,tourist,,,41,,2021-04-08_21h13.47.658,,,20,aron,,,,,0,,,süß,,60.06727534838642,av_experiment,
﻿choice_videos/1_005.mp4,,,,,,21,,,arm,,,,,,Chrome,,,right,,,,,,0,21,,,test,,2021.1.2,0,right,10,,2,,,,,,44,,Win32,,,images/tourist.png,,15,1280,15,0,,,2021-04-08_21h13.47.658,1,,SESSION,tourist,,,0,,,,images/koch.png,3.5801850000000286,1,,av_experiment,,Der fiese Koch ersticht den armen Touristen.,720,,ersticht,,1,,,fies,koch,,,43,,2021-04-08_21h13.47.658,,,21,aron,,,,,0,,,dick,,60.06727534838642,av_experiment,
﻿choice_videos/0_020.mp4,,,,,,22,,,alt,,,,,,Chrome,,,right,,,,,,0,22,,,test,,2021.1.2,0,right,0,,30,,,,,,46,,Win32,,,images/esel.png,,15,1280,15,0,,,2021-04-08_21h13.47.658,1,,SESSION,esel,,,0,,,,images/pinguin.png,3.23154999999997,0,,av_experiment,,Der kluge Pinguin küsst den alten Esel.,720,,küsst,,1,,,klug,pinguin,,,45,,2021-04-08_21h13.47.658,,,22,aron,,,,,0,,,böse,,60.06727534838642,av_experiment,
﻿choice_videos/2_026.mp4,,,,,,23,,,still,,,,,,Chrome,,,right,,,,,,0,23,,,test,,2021.1.2,0,right,400,,42,,,,,,48,,Win32,,,images/gärtner.png,,15,1280,15,0,,,2021-04-08_21h13.47.658,1,,SESSION,gärtner,,,0,,,,images/maler.png,5.002424999999903,2,,av_experiment,,Der nette Maler massiert den stillen Gärtner.,720,,massiert,,1,,,nett,maler,,,47,,2021-04-08_21h13.47.658,,,23,aron,,,,,0,,,gut,,60.06727534838642,av_experiment,
﻿choice_videos/3_055.mp4,,,,,,24,,,klug,,,,,,Chrome,6.151220000000194,,right,,,,,,0,24,,,test,return,2021.1.2,10,right,0,,98,,,,,,50,,Win32,,,images/pilot.png,,15,1280,15,0,,,2021-04-08_21h13.47.658,1,,SESSION,pilot,,,0,,,,images/pfarrer.png,3.5871749999998883,3,,av_experiment,,Den alten Pfarrer grüßt der kluge Pilot.,720,,grüßt,,1,,,alt,pfarrer,,,49,,2021-04-08_21h13.47.658,,,24,aron,,,,,0,,,nett,,60.06727534838642,av_experiment,
﻿choice_videos/2_017.mp4,,,,,,25,,,blass,,,,,,Chrome,,,left,,,,,,0,25,,,test,,2021.1.2,0,left,400,,27,,,,,,52,,Win32,,,images/cowboy.png,,15,1280,15,1,,,2021-04-08_21h13.47.658,1,,SESSION,cowboy,,,0,,,,images/radfahrer.png,2.240000000000009,2,,av_experiment,,Der schöne Radfahrer jagt den blassen Cowboy.,720,,jagt,,1,,,schön,radfahrer,,,51,,2021-04-08_21h13.47.658,,,25,aron,,,,,0,,,böse,,60.06727534838642,av_experiment,
﻿choice_videos/1_007.mp4,,,,,,26,,,müde,,,,,,Chrome,,,left,,,,,,0,26,,,test,,2021.1.2,0,left,10,,11,,,,,,54,,Win32,,,images/elch.png,,15,1280,15,1,,,2021-04-08_21h13.47.658,1,,SESSION,elch,,,0,,,,images/elefant.png,1.7325150000001486,1,,av_experiment,,Der taube Elefant fängt den müden Elch.,720,,fängt,,1,,,taub,elefant,,,53,,2021-04-08_21h13.47.658,,,26,aron,,,,,0,,,böse,,60.06727534838642,av_experiment,
﻿choice_videos/3_047.mp4,,,,,,27,,,fies,,,,,,Chrome,,,left,,,,,,0,27,,,test,,2021.1.2,10,left,0,,83,,,,,,56,,Win32,,,images/koch.png,,15,1280,15,1,,,2021-04-08_21h13.47.658,1,,SESSION,koch,,,0,,,,images/tourist.png,3.22840999999994,3,,av_experiment,,Den armen Touristen ersticht der fiese Koch.,720,,ersticht,,1,,,arm,tourist,,,55,,2021-04-08_21h13.47.658,,,27,aron,,,,,0,,,böse,,60.06727534838642,av_experiment,
﻿choice_videos/1_062.mp4,,,,,,28,,,stur,,,,,,Chrome,,,left,,,,,,0,28,,,test,,2021.1.2,0,left,10,,111,,,,,,58,,Win32,,,images/esel.png,,15,1280,15,1,,,2021-04-08_21h13.47.658,1,,SESSION,esel,,,0,,,,images/löwe.png,2.697695000000067,1,,av_experiment,,Den alten Löwen malt der sture Esel.,720,,malt,,1,,,alt,löwe,,,57,,2021-04-08_21h13.47.658,,,28,aron,,,,,0,,,nett,,60.06727534838642,av_experiment,
﻿choice_videos/3_050.mp4,,,,,,29,,,frech,,,,,,Chrome,,,right,,,,,,0,29,,,test,,2021.1.2,10,right,0,,88,,,,,,60,,Win32,,,images/cowboy.png,,15,1280,15,0,,,2021-04-08_21h13.47.658,1,,SESSION,cowboy,,,0,,,,images/soldat.png,3.3283299999998235,3,,av_experiment,,Den guten Soldaten fängt der freche Cowboy.,720,,fängt,,1,,,gut,soldat,,,59,,2021-04-08_21h13.47.658,,,29,aron,,,,,0,,,gut,,60.06727534838642,av_experiment,
﻿choice_videos/4_057.mp4,,,,,,30,,,rüde,,,,,,Chrome,,,up,,,,,,0,30,,,test,,2021.1.2,400,left,0,,154,,,,,,62,,Win32,,,images/cowboy.png,,15,1280,15,2,,,2021-04-08_21h13.47.658,0,,SESSION,cowboy,,,0,,,,images/kobold.png,3.6874800000000505,4,,av_experiment,,Den frechen Kobold jagt der rüde Cowboy.,720,,jagt,,1,,,frech,kobold,,,61,,2021-04-08_21h13.47.658,,,30,aron,,,,,0,,,blind,,60.06727534838642,av_experiment,
﻿choice_videos/1_065.mp4,,,,,,31,,,lahm,,,,,,Chrome,,,up,,,,,,0,31,,,test,,2021.1.2,0,up,10,,156,,,,,,64,,Win32,,,images/bauer.png,,15,1280,15,2,,,2021-04-08_21h13.47.658,1,,SESSION,bauer,,,0,,,,images/tourist.png,3.817060000000083,1,,av_experiment,,Den starken Touristen schubst der lahme Bauer.,720,,schubst,,1,,,stark,tourist,,,63,,2021-04-08_21h13.47.658,,,31,aron,,,,,0,,,böse,,60.06727534838642,av_experiment,
﻿choice_videos/4_024.mp4,,,,,,32,,,wild,,,,,,Chrome,36.83966499999997,,left,,,,,,0,32,,,test,return,2021.1.2,400,left,0,,39,,,,,,66,,Win32,,,images/tiger.png,,15,1280,15,1,,,2021-04-08_21h13.47.658,1,,SESSION,tiger,,,0,,,,images/papagei.png,2.497105000000147,4,,av_experiment,,Der bunte Papagei malt den wilden Tiger.,720,,malt,,1,,,bunt,papagei,,,65,,2021-04-08_21h13.47.658,,,32,aron,,,,,0,,,böse,,60.06727534838642,av_experiment,
